"NAME:","Run_4_1"
"EXPERIMENT TIME:","2023/06/06 12:16:33"
"ACTIVITY TYPE:","Running"
"COUNT OF ACTUAL STEPS:","120"

"Time[sec]","ACC X","ACC Y","ACC Z"
"0","-0.94","-10.55","-4.16"
"0.08094531250003456","0.67","-9.69","-3.30"
"0.16194531249993815","-0.78","-11.18","-3.37"
"0.24294531250006912","-4.24","-8.20","-4.94"
"0.3239453124999727","-5.30","-10.71","-4.86"
"0.4049453125001037","-0.12","-9.61","-4.35"
"0.4859453125000073","5.84","-20.01","-9.38"
"0.5669453124999109","4.71","-2.82","-1.84"
"0.6479453125000418","1.45","-0.43","0.20"
"0.7289453124999454","-0.12","6.90","-8.16"
"0.8099453125000764","-9.96","-17.77","-20.01"
"0.89094531249998","-3.96","-13.45","-8.24"
"0.971945312500111","4.98","9.30","-4.94"
"1.0529453125000146","-1.53","-1.45","-2.28"
"1.1339453124999181","-1.26","-15.02","-9.02"
"1.2149453125000491","-1.26","-20.01","-4.35"
"1.2959453124999527","-0.16","-5.26","-0.43"
"1.3769453125000837","4.35","-0.35","0.27"
"1.4579453124999873","0.35","4.98","-7.37"
"1.5389453124998909","-0.86","-20.01","-16.91"
"1.6199453125000218","-2.82","-14.87","-5.53"
"1.7009453124999254","5.02","6.32","-3.49"
"1.7819453125000564","-0.47","-4.55","-2.51"
"1.86294531249996","-2.79","-6.67","-12.32"
"1.943945312500091","-3.73","-20.01","-2.39"
"2.0249453124999945","8.32","-7.41","-0.71"
"2.105945312499898","2.79","0.16","-0.71"
"2.186945312500029","-5.06","6.24","-0.51"
"2.2679453124999327","-2.98","-20.01","-15.02"
"2.3489453125000637","2.75","-14.47","-3.18"
"2.4299453124999673","-0.27","7.10","-0.35"
"2.5109453125000982","-2.79","-5.06","-7.26"
"2.591945312500002","-3.41","-2.90","-20.01"
"2.6729453124999054","-3.84","-20.01","-8.04"
"2.7539453125000364","7.30","-7.61","-2.04"
"2.83494531249994","3.88","1.61","-1.22"
"2.915945312500071","-4.86","4.24","-0.12"
"2.9969453124999745","7.85","-20.01","-14.20"
"3.0779453125001055","5.53","-15.30","-1.57"
"3.158945312500009","2.43","2.24","-1.53"
"3.2399453124999127","-2.08","-5.37","-2.86"
"3.3209453125000437","4.24","2.24","1.61"
"3.4019453124999472","8.71","-20.01","-19.97"
"3.482945312500078","0.59","-10.08","-3.33"
"3.563945312499982","2.24","0.16","1.92"
"3.6449453125001128","-2.47","-0.75","-1.96"
"3.7259453125000164","5.26","-3.18","-20.01"
"3.80694531249992","6.04","-20.01","-3.37"
"3.887945312500051","0.12","-4.35","-0.12"
"3.9689453124999545","-3.06","-5.92","0.71"
"4.0499453125000855","1.45","2.63","0.39"
"4.130945312499989","-1.41","-8.98","-11.18"
"4.211945312499893","-0.59","-20.01","-5.92"
"4.292945312500024","-5.06","2.16","0.20"
"4.373945312499927","0.71","-2.59","-5.49"
"5.102945312499969","0.67","-2.31","-4.31"
"5.1839453125001","0.12","4.16","-2.63"
"5.264945312500004","-3.69","-20.01","-20.01"
"5.345945312499907","-4.08","-9.53","-2.39"
"5.426945312500038","3.45","8.04","-1.73"
"5.507945312499942","-1.73","2.43","-5.88"
"5.588945312500073","-10.63","-20.01","-4.00"
"5.669945312499976","-3.57","-20.01","2.79"
"5.750945312500107","-2.75","-2.08","-0.86"
"5.831945312500011","6.16","2.08","-2.39"
"5.913945312499891","-0.59","2.55","-5.30"
"5.9939453125000455","-5.57","-20.01","-20.01"
"6.074945312499949","-0.94","-12.43","-1.53"
"6.15594531250008","3.06","7.30","-1.77"
"6.236945312499984","-0.98","-2.63","-0.51"
"6.318945312500091","-9.77","-10.75","-17.50"
"6.398945312500018","-2.82","-20.01","5.92"
"6.479945312499922","-0.59","-1.53","-0.82"
"6.563945312499982","4.90","-2.39","-1.14"
"6.643945312499909","3.96","9.57","-11.18"
"6.72494531250004","-2.31","-20.01","-18.32"
"6.805945312499944","-1.33","-11.14","-3.53"
"6.886945312500075","3.41","10.24","-0.20"
"6.9689453124999545","-1.65","3.84","-8.24"
"7.048945312500109","-8.75","-20.01","-3.69"
"7.129945312500013","-2.24","-20.01","-0.78"
"7.210945312499916","-1.45","2.12","-2.98"
"7.291945312500047","5.22","-3.61","-3.45"
"7.373945312499927","-4.16","1.26","0.90"
"7.453945312500082","-5.88","-20.01","-20.01"
"7.5349453124999854","-2.90","-11.06","-2.24"
"7.615945312499889","1.61","6.83","-1.65"
"7.69694531250002","-2.55","-1.06","-5.14"
"7.7789453124999","-8.63","-20.01","-13.06"
"7.858945312500055","-1.26","-20.01","-1.53"
"7.939945312499958","0.08","1.65","-2.86"
"8.02094531250009","5.61","-2.04","-0.24"
"8.101945312499993","-1.96","2.12","-1.61"
"8.182945312499896","0.04","-20.01","-19.38"
"8.263945312500027","0.16","-13.65","-4.55"
"8.34494531249993","3.18","8.00","-0.94"
"8.425945312500062","-4.08","-0.39","-5.37"
"8.506945312499965","-3.45","9.38","-20.01"
"8.587945312500096","2.51","-20.01","-13.10"
"8.6689453125","1.57","-4.20","-1.61"
"8.749945312499904","4.59","2.71","0.00"
"8.830945312500035","-5.45","2.08","-0.16"
"8.911945312499938","4.16","-20.01","-5.14"
"8.99294531250007","7.45","-17.57","-1.80"
"9.073945312499973","3.14","4.35","-2.35"
"9.154945312500104","-2.82","-11.26","-1.14"
"9.235945312500007","2.20","2.35","1.06"
"9.31694531249991","14.36","-20.01","-17.81"
"9.397945312500042","-3.30","-12.00","-3.84"
"9.478945312499945","-6.47","0.82","1.37"
"9.559945312500076","-0.98","-2.75","-3.02"
"9.64094531249998","-1.96","-20.01","-3.49"
"9.721945312500111","11.65","-17.97","-3.06"
"9.802945312500015","0.08","4.63","0.12"
"9.883945312499918","-3.45","-4.47","-4.90"
"9.96494531250005","3.10","4.71","-4.98"
"10.045945312499953","5.53","-20.01","-12.00"
"10.126945312500084","-0.75","-15.93","-4.59"
"10.207945312499987","-0.51","3.65","0.31"
"10.28894531249989","-0.78","-2.79","-2.90"
"10.369945312500022","8.16","2.82","-20.01"
"11.098945312500064","0.00","5.14","-8.32"
"11.179945312499967","0.04","-20.01","-20.01"
"11.260945312500098","-5.30","-11.02","-2.79"
"12.070945312500044","-0.51","2.94","-0.43"
"12.151945312499947","-1.65","1.69","-2.63"
"12.232945312500078","-2.47","-20.01","6.94"
"13.042945312500024","-5.41","-20.01","-7.81"
"13.123945312499927","4.71","-5.02","-2.47"
"13.204945312500058","7.22","4.39","-1.06"
"13.609945312500031","-3.02","-4.98","-4.08"
"13.690945312499935","-3.49","9.61","-20.01"
"13.771945312500065","3.92","-20.01","-10.94"
"13.852945312499969","0.90","-6.83","-3.02"
"13.9339453125001","3.84","2.71","-0.08"
"14.014945312500004","-3.10","1.14","-1.29"
"14.095945312499907","1.18","-19.93","-2.94"
"14.176945312500038","9.45","-16.04","-0.43"
"14.257945312499942","2.59","3.84","-1.61"
"14.338945312500073","-3.49","-8.83","-1.14"
"14.419945312499976","-1.10","5.10","-13.26"
"14.500945312500107","0.27","-20.01","-11.41"
"14.581945312500011","3.84","-11.96","-3.73"
"14.662945312499915","3.61","3.53","-0.24"
"14.743945312500045","-2.00","-0.63","-1.92"
"14.824945312499949","5.30","-20.01","-2.12"
"14.90594531250008","9.14","-20.01","-2.67"
"14.986945312499984","0.00","-5.10","-1.14"
"15.067945312499887","-6.63","-5.84","2.98"
"15.148945312500018","4.43","-2.67","3.57"
"15.229945312499922","3.33","-5.92","-20.01"
"15.310945312500053","-5.06","-16.12","-7.41"
"15.391945312499956","-5.33","5.14","2.00"
"15.472945312500087","1.26","-1.02","-5.49"
"15.553945312499991","5.73","11.85","-20.01"
"15.634945312499894","7.14","-20.01","-10.94"
"15.715945312500025","-3.65","-8.90","0.59"
"15.796945312499929","-2.71","0.04","2.55"
"15.87794531250006","2.82","2.67","-0.16"
"15.958945312499964","4.82","-0.43","-18.28"
"16.039945312500095","-5.22","-17.81","-8.32"
"16.120945312499998","-6.86","4.79","0.94"
"16.2019453124999","1.65","-3.92","-6.59"
"16.282945312500033","3.30","13.89","-19.42"
"16.363945312499936","3.22","-20.01","-18.40"
"16.444945312500067","-3.57","-7.96","0.20"
"16.52594531249997","-4.90","-4.00","1.18"
"16.606945312500102","1.37","2.55","2.08"
"16.687945312500005","11.14","2.12","-19.46"
"16.76894531249991","-5.45","-20.01","-6.08"
"16.84994531250004","-2.94","3.02","2.12"
"16.930945312499944","0.31","-2.08","-3.77"
"17.011945312500075","1.02","7.53","-12.32"
"17.092945312499978","0.82","-20.01","-20.01"
"17.17394531250011","-2.12","-8.51","-1.73"
"17.254945312500013","-3.53","0.24","1.29"
"17.335945312499916","-0.24","0.75","-0.82"
"17.416945312500047","3.02","0.39","-16.83"
"17.49794531249995","-2.24","-20.01","-8.90"
"17.578945312500082","-7.96","6.00","-0.47"
"17.659945312499985","0.31","-4.79","-3.18"
"17.74094531249989","-1.29","0.51","1.02"
"17.82194531250002","1.73","-19.30","-10.40"
"17.902945312499924","11.38","-5.73","0.94"
"17.983945312500055","0.82","4.16","-0.94"
"18.064945312499958","-4.90","-4.55","-4.55"
"18.14594531250009","-8.20","16.32","-20.01"
"18.226945312499993","1.49","-20.01","-0.86"
"18.307945312499896","5.88","-4.04","-1.65"
"18.388945312500027","6.86","-1.57","-1.22"
"18.46994531249993","-4.67","3.22","-2.55"
"18.550945312500062","-4.12","-20.01","-19.77"
"18.631945312499965","4.16","-7.61","-3.92"
"18.712945312500096","1.37","6.47","-0.24"
"18.7939453125","-4.12","-0.75","-8.83"
"19.603945312499945","-1.10","8.67","-20.01"
"19.684945312500076","-4.63","-20.01","-8.63"
"19.76594531249998","3.18","4.12","-4.63"
"19.84694531250011","4.59","-7.18","-1.06"
"19.927945312500015","-2.94","0.39","2.08"
"20.008945312499918","-0.82","-14.20","-16.91"
"20.08994531250005","8.28","-13.93","-2.86"
"20.170945312499953","0.20","7.77","-1.29"
"20.251945312500084","-1.06","-5.45","-1.61"
"20.332945312499987","-2.98","4.94","-19.69"
"20.41394531249989","-4.24","-20.01","-10.36"
"20.494945312500022","7.02","-12.67","-3.06"
"20.575945312499925","2.86","3.30","-0.86"
"20.656945312500056","0.35","1.02","-3.73"
"20.73794531249996","-1.57","-20.01","-7.18"
"20.81894531250009","6.59","-15.61","3.33"
"20.899945312499995","-0.59","4.43","-2.35"
"20.980945312499898","-3.69","-7.14","-2.12"
"21.06194531250003","-4.51","8.75","-20.01"
"21.142945312499933","-0.04","-20.01","-11.89"
"21.223945312500064","4.20","-10.32","-2.75"
"21.304945312499967","5.96","5.26","-0.94"
"21.3859453125001","-3.41","2.55","-0.35"
"21.466945312500002","4.51","-13.69","-5.73"
"21.547945312499905","6.83","-19.06","-1.22"
"21.628945312500036","3.84","7.61","-1.77"
"21.70994531249994","-3.30","-7.14","-3.02"
"21.79094531250007","1.88","4.04","-9.77"
"21.871945312499975","-0.08","-20.01","-13.85"
"21.952945312500106","2.12","-6.20","-2.59"
"22.03394531250001","2.98","-0.82","0.75"
"22.114945312499913","-3.22","4.16","-0.35"
"22.195945312500044","9.14","-20.01","-9.14"
"22.276945312499947","5.06","-12.79","3.73"
"22.357945312500078","1.96","7.77","-0.63"
"22.438945312499982","-0.39","-6.75","-2.24"
"22.519945312500113","-5.96","7.69","-20.01"
"22.600945312500016","-1.73","-20.01","-11.38"
"22.68194531249992","3.37","1.69","-3.14"
"22.76294531250005","4.20","-4.75","1.37"
"22.843945312499955","-2.94","0.35","0.67"
"22.924945312500085","-8.00","-20.01","-20.01"
"23.00594531249999","3.80","-8.39","-3.53"
"23.086945312499893","0.75","8.36","0.43"
"23.167945312500024","-3.84","0.71","-7.14"
"23.248945312499927","-8.24","6.90","-20.01"
"23.329945312500058","-4.28","-20.01","-2.51"
"23.410945312499962","2.79","-6.24","-4.55"
"23.491945312500093","4.79","1.37","1.26"
"23.572945312499996","-2.39","1.96","1.06"
"23.6539453124999","-0.43","-15.57","-8.32"
"23.73494531250003","7.65","-13.85","-1.06"
"23.815945312499935","3.57","5.30","-0.82"
"23.896945312500065","-5.73","-1.65","-5.10"
"23.97794531249997","-6.71","1.65","-20.01"
"24.0589453125001","-5.26","-20.01","-2.08"
"24.139945312500004","3.33","-6.20","-2.08"
"24.220945312499907","4.79","2.67","-0.63"
"24.301945312500038","-1.84","-0.31","-0.63"
"24.382945312499942","-7.69","-14.16","-17.93"
"24.463945312500073","5.53","-15.14","-3.61"
"24.544945312499976","2.67","8.24","-3.53"
"24.625945312500107","-3.96","-5.88","-2.04"
"24.70694531250001","-0.67","2.24","-7.88"
"24.787945312499915","3.18","-20.01","-10.98"
"25.597945312500087","-1.02","-10.36","-6.67"
"25.67894531249999","-2.12","2.67","3.02"
"25.759945312499894","-0.35","3.80","-4.28"
"25.840945312500025","6.12","11.77","-20.01"
"25.92194531249993","4.75","-20.01","-2.47"
"26.00294531250006","1.26","-3.30","-1.96"
"26.083945312499964","-5.57","-8.51","1.80"
"26.164945312500095","1.33","0.31","2.24"
"26.245945312499998","11.26","-11.10","-20.01"
"26.3269453124999","-1.73","-17.38","-5.57"
"26.407945312500033","-9.73","4.31","2.08"
"26.488945312499936","1.77","-3.80","-3.33"
"26.569945312500067","0.47","2.39","-4.94"
"26.65094531249997","-2.47","-20.01","-20.01"
"26.731945312500102","-1.18","-12.12","-2.94"
"26.812945312500005","1.10","11.45","-3.30"
"26.89394531249991","-0.51","1.77","-4.31"
"26.97494531250004","1.73","-20.01","6.32"
"27.055945312499944","0.04","-20.01","0.20"
"27.136945312500075","-6.24","1.88","-0.12"
"27.217945312499978","3.22","-1.84","-6.39"
"27.29894531250011","-3.10","0.94","-0.08"
"27.379945312500013","-5.45","-20.01","-19.61"
"27.460945312499916","2.00","-13.89","-2.08"
"27.541945312500047","2.98","13.93","-2.35"
"27.62294531249995","-2.04","-0.86","-7.57"
"27.703945312500082","-4.08","-13.22","-16.40"
"27.784945312499985","-5.02","-20.01","-1.96"
"27.86594531249989","-0.16","-1.26","-2.28"
"27.94694531250002","7.92","0.24","-0.55"
"28.027945312499924","-4.55","1.26","1.88"
"28.108945312500055","-0.24","-20.01","-20.01"
"28.189945312499958","-3.26","-8.32","-1.14"
"28.27094531250009","0.35","7.37","-0.08"
"28.351945312499993","0.00","2.51","-5.37"
"28.432945312499896","-12.04","-20.01","-1.77"
"28.513945312500027","0.55","-20.01","4.04"
"28.59494531249993","-4.00","4.04","0.78"
"28.675945312500062","2.94","-3.96","-5.57"
"28.756945312499965","-1.61","1.49","-0.20"
"28.837945312500096","-3.65","-20.01","-20.01"
"28.9189453125","-2.04","-11.69","-4.24"
"28.999945312499904","1.14","11.45","-1.92"
"29.080945312500035","-0.63","4.16","-6.51"
"29.161945312499938","-6.16","-20.01","-0.16"
"29.24294531250007","0.16","-20.01","-0.55"
"29.323945312499973","-7.73","4.75","-0.43"
"29.404945312500104","2.79","-5.26","-2.63"
"29.485945312500007","-1.18","-0.67","0.98"
"29.56694531249991","-5.33","-20.01","-20.01"
"29.647945312500042","-3.30","-10.94","-2.82"
"29.728945312499945","-3.33","9.18","-2.82"
"29.809945312500076","-2.79","4.00","-7.81"
"29.89094531249998","-1.92","-20.01","-7.69"
"29.97194531250011","-4.59","-20.01","-1.26"
"30.052945312500015","-0.82","-2.04","-2.67"
"30.133945312499918","7.10","1.92","-1.14"
"30.21494531250005","-3.06","-2.35","0.82"
"30.295945312499953","-1.53","-13.02","-20.01"
"30.376945312500084","8.16","-16.08","-4.28"
"30.457945312499987","2.24","9.65","-0.90"
"30.53894531249989","-4.35","-4.63","-4.08"
"30.619945312500022","3.18","0.12","-1.53"
"31.591945312500002","4.71","3.45","-1.02"
"31.672945312499905","-2.43","2.75","-2.55"
"32.483945312500055","3.18","8.90","-19.14"
"32.56494531249996","6.55","-20.01","-5.81"
"34.02294531250004","7.88","-20.01","-16.48"
"34.103945312499945","-4.82","-9.69","-1.14"
"34.184945312500076","-2.55","2.75","0.12"
"34.26594531249998","4.08","1.77","-1.61"
"34.34694531250011","-7.22","-20.01","-4.12"
"34.427945312500015","-3.77","-20.01","5.02"
"34.50894531249992","-2.90","-1.22","1.18"
"34.58994531250005","3.30","-0.94","-4.55"
"34.67094531249995","-5.22","0.04","0.86"
"34.751945312500084","-2.63","-20.01","-19.97"
"34.83294531249999","0.63","-9.34","-0.98"
"34.91394531249989","1.80","11.57","-2.20"
"34.99494531250002","-1.06","-1.22","-5.37"
"35.075945312499925","5.53","-2.75","-19.89"
"35.156945312500056","-0.59","-20.01","-8.12"
"35.23794531249996","-4.12","3.02","-1.45"
"35.31894531250009","4.39","1.41","-2.67"
"35.399945312499995","1.29","2.51","-5.33"
"35.4809453124999","-4.20","-20.01","-20.01"
"35.56194531250003","0.39","-10.51","-4.00"
"35.64294531249993","-1.22","10.24","-3.26"
"35.723945312500064","-1.41","-1.29","-4.12"
"35.80494531249997","-5.26","-20.01","8.47"
"35.8859453125001","-3.57","-20.01","-0.51"
"35.9669453125","1.33","-2.86","-3.30"
"36.047945312499905","7.02","1.45","-1.29"
"36.128945312500036","-7.69","0.04","2.63"
"36.20994531249994","2.67","-19.97","-14.40"
"36.29094531250007","2.63","-15.02","-0.90"
"36.371945312499975","7.14","5.10","-3.37"
"36.452945312500106","-3.22","-10.12","-1.29"
"36.53394531250001","-1.65","7.34","-18.24"
"36.61494531249991","-1.80","-20.01","-12.47"
"36.695945312500044","6.75","-8.87","-3.73"
"36.77694531249995","2.98","5.84","0.27"
"36.85794531250008","-2.98","-0.75","-1.88"
"36.93894531249998","4.94","-20.01","1.26"
"37.01994531250011","5.26","-20.01","1.18"
"37.100945312500016","-0.78","0.75","-0.59"
"37.18194531249992","-3.41","-9.77","-0.75"
"37.26294531250005","-1.37","5.57","-14.51"
"37.343945312499955","0.94","-20.01","-13.45"
"37.424945312500085","1.92","-11.77","-5.57"
"37.50594531249999","4.82","3.22","2.00"
"37.58694531249989","-4.31","-0.24","-1.65"
"37.667945312500024","8.08","-8.79","-18.67"
"37.74894531249993","2.67","-20.01","-5.41"
"37.82994531250006","0.82","-2.20","-1.14"
"37.91094531249996","-4.43","-6.55","1.45"
"37.99194531250009","-0.27","4.75","-7.57"
"38.072945312499996","3.84","-20.01","-9.61"
"38.1539453124999","3.80","-19.73","-5.26"
"38.23494531250003","-5.18","7.02","1.33"
"38.315945312499935","-0.78","-4.35","-3.06"
"38.396945312500065","7.34","12.28","-20.01"
"38.47794531249997","2.86","-20.01","-8.16"
"38.5589453125001","-0.86","-1.06","-3.33"
"38.639945312500004","-6.79","-4.98","0.47"
"38.72094531249991","2.94","-0.39","3.80"
"38.80194531250004","10.28","-7.88","-19.53"
"38.88294531249994","-1.06","-18.01","-7.26"
"38.96394531250007","-5.65","6.90","1.69"
"39.044945312499976","0.00","-4.08","-5.02"
"39.12594531250011","9.81","3.96","-20.01"
"39.20694531250001","5.49","-20.01","-4.71"
"39.287945312499915","-1.77","-3.65","-2.59"
"39.368945312500045","-2.28","-7.18","4.28"
"40.016945312499956","-3.96","-9.18","-4.16"
"40.09794531250009","1.88","5.57","-0.59"
"40.17894531249999","0.86","-0.51","-4.16"
"40.259945312499894","-9.06","-20.01","-3.88"
"40.340945312500025","-2.12","-20.01","-3.30"
"40.42194531249993","-1.14","3.80","-3.10"
"40.50294531250006","5.30","0.35","-4.82"
"40.583945312499964","-2.63","1.49","1.18"
"40.664945312500095","0.20","-20.01","-19.42"
"40.7459453125","0.35","-14.55","-6.04"
"40.8269453124999","5.14","3.92","-2.20"
"40.90794531250003","-3.88","-6.47","-0.71"
"40.988945312499936","0.94","4.43","-12.75"
"41.06994531250007","2.47","-20.01","-15.46"
"41.15094531249997","3.06","-12.71","-2.24"
"41.2319453125001","-0.20","1.88","2.00"
"41.312945312500005","-0.71","-2.47","-1.41"
"41.39394531249991","6.16","-20.08","-4.82"
"41.47494531250004","5.73","-20.01","-0.12"
"41.555945312499944","-2.55","-9.61","-0.31"
"41.636945312500075","-2.55","-2.79","2.63"
"41.71794531249998","3.92","1.73","0.86"
"41.79894531250011","7.02","-12.59","-13.06"
"41.87994531250001","-0.63","-17.42","-5.49"
"41.960945312499916","-4.94","6.51","-3.45"
"42.04194531250005","-2.63","-6.00","-3.49"
"42.12294531249995","3.53","12.83","-17.57"
"42.20394531250008","3.96","-20.01","-20.01"
"42.284945312499985","-4.08","-8.47","-3.41"
"42.36594531249989","0.31","5.84","-3.37"
"42.44694531250002","-1.10","5.30","-4.79"
"42.527945312499924","-0.20","-14.63","-7.06"
"42.608945312500055","-3.30","-20.01","-4.59"
"42.68994531249996","-1.61","4.31","-3.41"
"42.77094531250009","3.88","-6.63","-2.86"
"42.85194531249999","1.80","7.30","-8.94"
"42.932945312499896","-0.31","-20.01","-20.01"
"43.01394531250003","-1.37","-15.38","-5.30"
"43.09494531249993","4.79","9.89","-3.80"
"43.17594531250006","-2.04","-1.69","-6.28"
"43.256945312499965","-7.57","3.41","-20.01"
"43.337945312500096","0.20","-20.01","-4.24"
"43.4189453125","4.16","-16.44","-0.82"
"43.499945312499904","0.90","5.65","-0.75"
"43.580945312500035","-1.61","-1.26","-1.80"
"43.66194531249994","3.41","-20.01","1.80"
"43.74294531250007","4.79","-20.01","-1.61"
"43.82394531249997","-0.55","-3.22","-1.45"
"43.904945312500104","-5.22","-5.88","3.57"
"43.98594531250001","0.39","2.51","0.71"
"44.06694531249991","4.43","-4.67","-16.44"
"44.14794531250004","-0.24","-13.73","-3.49"
"44.228945312499945","-6.28","1.49","0.00"
"44.309945312500076","3.73","-2.98","-5.10"
"44.39094531249998","0.59","5.88","-9.02"
"44.47194531250011","-8.28","-20.01","-20.01"
"44.552945312500015","1.06","-16.71","-0.31"
"44.63394531249992","1.41","5.53","-2.24"
"44.71494531250005","3.18","-4.55","-0.98"
"44.79594531249995","10.36","-6.71","-7.92"
"44.876945312500084","-8.20","-20.01","-7.73"
"44.95794531249999","0.59","-7.30","-0.63"
