NAME:,walk_4_1.csv,,
EXPERIMENT TIME:,18/06/2023 05:33,,
ACTIVITY TYPE:,Walking,,
COUNT OF ACTUAL STEPS: ,100,,
,,,
Time [sec],ACC X,ACC Y,ACC Z
0,9.65,-0.67,0.51
0.07098389,9.61,-0.59,0.43
0.14199829,9.57,-0.75,0.47
0.21298218,9.65,-0.82,0.43
0.28399658,9.65,-0.86,0.43
0.35498047,9.61,-0.82,0.47
0.42599487,9.57,-0.82,0.35
0.49697876,9.34,-0.43,0.39
0.56799316,9.73,-0.71,-0.35
0.63897705,9.57,-1.02,0.24
0.70999146,9.02,-1.57,0.86
0.78097534,9.81,-2.16,-0.59
0.85198975,11.02,1.53,-1.18
0.92297363,9.89,-0.9,-0.98
0.99398804,9.18,-0.82,-0.98
1.0649719,9.77,-0.16,-1.14
1.1359863,9.02,-0.04,-1.49
1.2070007,9.77,-0.08,-1.53
1.2779846,9.06,-0.51,-1.96
1.348999,10.75,-1.8,-2
1.4199829,12,-1.77,0.24
1.4909973,12,-0.94,0.04
1.5619812,6.55,-3.8,2.31
1.6329956,7.53,-4.08,3.22
1.7039795,8.55,-0.98,1.88
1.7749939,8,-1.84,0.75
1.8459778,8.59,-0.43,0.35
1.9169922,8.67,-0.39,0.04
1.9879761,8.98,-0.98,0.35
2.0589905,9.34,-0.16,0.98
2.1299744,10.08,0.67,0.27
2.2009888,10.28,2.39,-2.51
2.2719727,14.47,0.43,3.8
2.342987,9.45,-9.06,9.57
2.413971,9.49,-1.06,-0.47
2.4849854,8,-0.39,0.27
2.5559998,7.85,0.31,-0.94
2.6269836,7.81,-1.73,0.51
2.697998,8.55,-0.63,-0.98
2.768982,9.49,-0.59,-1.49
2.8399963,12.28,-0.78,-2.04
2.9109802,14.51,-5.22,4.08
2.9819946,3.8,0.82,0.98
3.0529785,10.28,-4.47,2.82
3.123993,7.49,-0.86,1.14
3.1949768,8,-1.8,1.69
3.2659912,8.55,-1.73,1.29
3.336975,8.83,0.78,-0.82
3.4079895,9.77,-0.59,-0.47
3.4789734,9.89,1.53,1.26
3.5499878,10.08,0.63,-2.98
3.6209717,13.57,-2.24,0.86
3.691986,10.04,-4.67,8.67
3.7630005,8.36,2.39,0.47
3.8339844,8.36,-1.96,2.59
3.9049988,7.18,-0.71,-0.12
3.9759827,8.12,-1.33,-0.51
4.046997,8.39,-0.71,-1.14
4.117981,9.3,-0.63,-1.53
4.1889954,10.98,-1.77,-0.39
4.2599792,14.75,0.71,-6.59
4.3309937,14.55,-2.55,6.47
4.4019775,4,-1.29,0.9
4.472992,10.16,0.98,2.16
4.543976,7.88,-2.43,0.98
4.61499,8.08,-1.1,0.78
4.685974,6.94,-2.28,0.59
4.7569885,9.49,0.55,0.47
4.8279724,9.14,-0.43,0.86
4.898987,9.38,0.59,-0.67
4.9699707,10.94,1.33,-1.65
5.040985,13.49,-2.16,2.94
5.1119995,10.2,-5.81,4.94
5.1829834,9.06,2.94,1.06
5.253998,8.63,-1.69,1.02
5.3249817,7.49,-0.75,0.08
5.395996,7.96,-0.9,0.75
5.46698,8.2,-0.75,-0.12
5.5379944,9.41,-0.94,-1.18
5.6089783,9.96,0.24,-1.18
5.6799927,13.34,1.02,-1.33
5.7509766,13.26,-6.47,4.28
5.821991,6.63,-1.37,2.51
5.892975,7.81,-1.29,2.04
5.9639893,8.87,-2.39,2.12
6.034973,8.04,-1.06,-0.78
6.1059875,8.24,-0.35,0.27
6.1769714,8.83,-0.55,0
6.247986,10,-0.31,-0.47
6.3190002,10.16,0.94,2.51
6.389984,11.38,-0.04,0.31
6.4609985,10.94,0.51,3.02
6.5319824,10.43,-6.24,4.63
6.602997,9.34,0.12,2.59
6.6739807,6.71,-2.12,-0.31
6.744995,8.24,0.2,-0.59
6.815979,8.43,-0.98,-1.26
6.8869934,8.75,0.04,-1.22
6.9579773,10.36,-0.78,-1.02
7.0289917,11.1,0.55,-2.59
7.0999756,15.06,-4.67,3.8
7.17099,4.28,0.2,1.26
7.241974,12.12,-4.12,2.04
7.3129883,7.77,-1.45,0.27
7.383972,7.57,-1.26,0.39
7.4549866,7.92,-0.67,0.08
7.5259705,10.32,0.2,-0.24
7.596985,9.1,-0.43,-0.78
7.6679993,10.75,0.98,0.47
7.738983,10.83,0.71,-1.77
7.8099976,11.69,-2.43,3.92
7.8809814,10.36,-5.26,5.26
7.951996,8.32,4.39,2
8.02298,7.53,-2.04,2.82
8.093994,8.04,-2.08,-0.94
8.164978,7.96,-0.31,-1.22
8.235992,8.59,0,-1.22
8.306976,9.85,-0.67,-1.96
8.377991,11.53,1.18,-1.73
8.448975,14.44,-5.45,4
8.519989,5.18,2.12,2
8.590973,10.36,-3.73,2.55
8.661987,8.04,-1.49,0.82
8.732971,7.88,0.27,1.22
8.803986,8.08,-1.45,0
8.875,8.36,0.78,-0.51
8.945984,8.32,0.39,-0.39
9.016998,9.96,-0.16,-0.9
9.087982,10.08,0.16,0.51
9.158997,14,-1.37,1.69
9.22998,11.1,0.43,3.88
9.300995,9.73,-2.16,0.31
9.371979,8.59,-1.37,1.73
9.442993,7.65,-0.35,-1.02
9.513977,8.67,-1.84,0.08
9.584991,8.43,-1.18,-0.75
9.655975,8.55,0.08,-0.67
9.72699,9.73,-0.24,-1.02
9.797974,12.32,-0.75,-2.08
9.868988,12.98,-2.04,0.51
9.939972,6.28,-1.73,1.77
10.010986,12.4,-5.65,2.04
10.082001,7.41,-1.18,0.78
10.152985,8.28,-0.47,0.86
10.223999,7.81,-1.53,0.24
10.294983,9.14,-1.37,0.31
10.365997,9.41,-0.08,0.78
10.436981,10.24,0.39,-0.16
10.507996,10.51,0.78,0.9
10.5789795,10.87,-1.37,-2.16
10.649994,11.61,2.16,6.43
10.720978,9.69,-4.67,2.08
10.791992,9.49,0.98,1.57
10.862976,6.04,-2.39,0.51
10.9339905,8.28,-1.45,0.35
11.004974,8.36,-0.12,-0.75
11.075989,8.71,0.12,-1.1
11.146973,10.04,-0.75,-0.63
11.217987,12.83,0.63,-1.8
11.288971,13.18,-5.49,3.3
11.359985,5.69,-0.24,2
11.431,11.26,-4.94,3.41
11.501984,8.16,-0.47,-0.31
11.572998,7.61,-0.47,0.55
11.643982,7.73,-0.63,0.2
11.714996,8,-0.71,0.43
11.78598,10.12,-0.43,0.78
11.856995,9.49,0,-0.12
11.9279785,11.1,-0.47,-2.2
11.998993,12.94,-2.59,7.96
12.069977,9.38,-5.84,3.3
12.140991,9.49,3.02,2.12
12.211975,6,-1.65,1.1
12.2829895,8.39,-0.2,-0.82
12.353973,8.16,-0.08,-0.04
12.424988,8.55,-0.82,-1.02
12.495972,10.47,-0.82,-1.57
12.566986,12.4,0.16,-1.1
12.6380005,15.14,-10.4,1.26
12.708984,4.82,2.43,0.2
12.779999,7.41,-5.69,2.59
12.850983,8.43,-0.67,1.37
12.921997,8.2,-0.08,0.43
12.992981,8.36,-0.71,0.63
13.063995,7.61,-0.59,-0.39
13.134979,9.45,-0.27,0.59
13.205994,9.41,-0.59,1.84
13.276978,11.02,-1.53,-2.9
13.347992,13.42,-3.14,8.24
13.418976,10.79,-7.96,2.39
13.48999,9.49,2.39,2.04
13.560974,6.24,-2.39,1.88
13.631989,7.3,0.27,-0.98
13.702972,8.55,-2.51,1.06
13.773987,8.83,0.47,-0.71
13.844971,9.89,0.12,-0.98
13.915985,10.83,-1.45,-2.16
13.9869995,14.63,-0.94,2.24
14.057983,12.75,-3.77,2.31
14.128998,9.49,-2.28,2.9
14.199982,6.28,-1.77,1.02
14.270996,8.51,-1.14,0.75
14.34198,8.04,-1.8,0.2
14.412994,7.26,-0.67,1.33
14.483978,9.02,0.12,0.55
14.554993,10.2,-0.04,-0.59
14.625977,10.98,-0.47,-0.98
14.696991,13.18,-2.79,1.33
14.767975,9.45,-2.67,6.04
14.838989,9.92,-3.69,-0.12
14.909973,8.67,-1.1,1.92
14.980988,7.3,-0.12,-0.04
15.051971,8.63,-0.71,-1.14
15.122986,8.47,-0.86,-0.16
15.194,9.22,0.47,-0.35
15.264984,11.14,-1.57,-1.49
15.335999,13.57,1.18,-0.55
15.406982,14.04,-10.16,3.96
15.477997,7.49,-1.65,0.9
15.548981,6.32,-3.88,2.04
15.619995,7.88,-1.02,0.94
15.690979,7.69,-0.59,0.9
15.761993,8.12,-0.55,0.63
15.832977,7.53,-0.75,-0.75
15.903992,10.16,0.75,-1.45
15.974976,8.75,0.16,-0.47
16.04599,12.43,-0.63,-2.55
16.116974,12.08,0.67,11.96
16.187988,9.34,-4.51,1.77
16.258972,10.04,-0.35,2.67
16.329987,6.24,-1.96,-0.43
16.40097,8.04,-0.08,0.08
16.471985,8.24,-1.02,-1.22
16.543,9.3,-0.04,-1.22
16.613983,10.51,-1.49,-1.26
16.684998,13.93,-1.14,2.86
16.755981,10.98,-0.94,2.08
16.826996,8.71,-4.35,3.57
16.89798,7.14,0.43,0.47
16.968994,8.71,-1.26,1.14
17.039978,7.92,-1.06,0.39
17.110992,8.28,-0.2,0.35
17.181976,8.55,-0.12,0.47
17.25299,9.06,0.08,-0.08
17.323975,10.24,-0.75,1.06
17.394989,11.61,-1.29,-1.41
17.465973,13.61,-3.41,5.84
17.536987,7.49,-7.81,2.79
17.607971,11.57,1.45,2.9
17.678986,6.83,-2.51,2.28
17.75,7.53,-0.31,-0.04
17.820984,8.2,-0.9,-0.04
17.891998,8.51,-0.86,-0.86
17.962982,9.57,-0.31,-1.22
18.033997,12.71,-0.12,-0.67
18.10498,13.38,-2.16,2.59
18.175995,9.38,-4.63,3.8
18.246979,10.51,-3.65,3.3
18.317993,6.94,-0.9,1.06
18.388977,7.57,-0.51,0.2
18.459991,8.16,-1.8,0.24
18.530975,7.73,-1.65,3.77
18.60199,8.75,-0.04,0
18.672974,10.51,-0.78,0.04
18.743988,10.36,-0.31,-0.43
18.814972,12.04,-0.82,2.63
18.885986,11.34,-1.57,7.14
18.957,9.77,-10,1.49
19.027985,10.08,0.71,1.8
19.098999,6.94,-1.49,0.59
19.169983,8.12,-1.37,-0.12
19.240997,8.16,-0.75,-0.55
19.311981,8.87,-0.55,-0.67
19.382996,9.73,-0.78,-0.27
19.45398,13.61,0.27,-2.08
19.524994,13.77,-4.47,2.31
19.595978,3.65,1.29,1.61
19.666992,9.53,-5.69,2.9
19.737976,7.41,-0.82,0.12
19.80899,8.04,-0.2,1.37
19.879974,7.88,-0.51,0
19.950958,6.63,-0.63,3.22
20.022003,9.45,-0.43,0.39
20.092987,9.96,-0.24,0.78
20.16397,10.63,-0.71,-1.73
20.235016,13.18,-2.24,11.02
20.306,8.83,-5.65,0.55
20.376984,9.96,4.28,2.2
20.447968,6.75,-2.2,1.92
20.519012,7.65,-0.2,-0.35
20.589996,8.32,-1.18,1.02
20.66098,8.59,0.04,-0.43
20.731964,8.47,0.04,-0.35
20.803009,10.79,-0.78,-1.29
20.873993,13.42,-0.71,1.45
20.944977,14.16,-6.86,0.78
21.01596,8,-0.78,0.94
21.087006,7.22,-4.24,1.77
21.15799,8.28,-1.22,1.26
21.228973,7.73,-1.18,1.22
21.299957,7.96,-0.98,0.86
21.371002,9.45,-0.04,-1.26
21.441986,10.79,-0.55,0.24
21.51297,9.57,0.2,0.59
21.584015,11.57,-1.69,-3.18
21.654999,10.36,4.9,8.98
21.725983,8.98,-2.51,2.55
21.796967,10.47,1.53,-0.94
21.868011,6.28,-1.37,-0.71
21.938995,8.16,-1.22,0.27
22.00998,8.43,-1.41,-0.43
22.080963,8.47,0.43,-0.35
22.152008,10.16,-0.31,0.51
22.222992,12.28,1.1,-0.98
22.293976,13.85,-8.12,3.14
22.36496,2.86,1.14,1.73
22.436005,10.24,-5.53,4.75
22.506989,8.39,-1.02,0.31
22.577972,8.04,-0.47,1.06
22.648956,8.63,-0.59,0.35
22.720001,8.55,-0.31,0.08
22.790985,10,-0.55,0.63
22.861969,9.26,1.18,0.63
22.933014,11.77,-1.02,-3.3
23.003998,11.53,0.27,6.12
23.074982,9.81,-6.2,0.39
23.145966,10.4,1.61,2.08
23.21701,7.22,-1.41,1.14
23.287994,7.57,-0.67,-0.86
23.358978,8.39,-0.35,-0.82
23.429962,8.51,0.12,-1.53
23.501007,10.4,-0.9,0.08
23.571991,13.3,1.1,-2.51
23.642975,13.96,-5.1,2.67
23.713959,0.78,2.82,0.47
23.785004,11.49,-6.94,3.65
23.855988,7.85,-0.98,-0.43
23.926971,8.16,-0.27,0.75
23.997955,7.81,-0.63,0.08
24.069,9.26,-0.12,-1.8
24.139984,9.69,-0.43,-0.35
24.210968,10.71,0.55,1.37
24.282013,12.71,-1.61,-1.61
24.352997,11.26,1.18,4.47
24.42398,8.9,-6.12,0.51
24.494965,10.36,1.65,1.14
24.56601,6.79,-1.8,-0.16
24.636993,8.12,-0.94,-0.39
24.707977,7.73,-0.51,-0.9
24.778961,8.79,-0.9,-0.43
24.850006,10.71,-2.16,0.39
24.92099,13.81,2.39,1.37
24.991974,13.93,-8.94,3.1
25.062958,8.36,-2.63,3.69
25.134003,7.69,-1.1,-0.24
25.204987,8.16,0.2,0.78
25.27597,8.24,-2.67,-0.24
25.347015,7.77,0,0.08
25.418,8.87,0.2,0.39
25.488983,9.73,-0.51,-0.12
25.559967,11.02,-0.75,0.51
25.631012,11.26,-0.98,3.02
25.701996,9.61,-0.43,7.57
25.77298,9.41,1.61,-1.14
25.843964,8.43,-0.43,2.82
25.915009,6.35,-1.14,-0.67
25.985992,8.08,-1.29,0.12
26.056976,8.36,-0.78,-0.98
26.12796,9.69,0.59,-0.12
26.199005,10.79,-0.63,-0.04
26.269989,13.02,0.59,4.04
26.340973,13.06,-5.18,2.28
26.411957,7.34,-0.59,2
26.483002,6.55,-2.71,2.31
26.553986,8.98,-0.86,1.29
26.62497,8.16,-1.1,0.12
26.696014,8.16,-0.59,0.2
26.766998,8.94,0,0.78
26.837982,9.18,-0.43,-0.2
26.908966,11.57,0.27,2
26.980011,13.42,-0.63,0.9
27.050995,10.75,-2.43,5.73
27.121979,9.57,1.8,-0.39
27.192963,8.24,-1.02,2.35
27.264008,6.98,-0.63,-0.27
27.334991,8.59,-1.92,1.06
27.405975,8.71,-0.12,0
27.47696,8.71,-0.35,-0.94
27.548004,10.2,-0.63,-0.86
27.618988,13.02,1.45,-0.47
27.689972,13.26,-8.47,3.45
27.760956,4.04,1.1,0.94
27.832,9.81,-5.3,3.33
27.902985,8.12,-0.51,-0.08
27.973969,7.96,-1.18,0.63
28.045013,7.53,-0.98,0.27
28.115997,9.26,0.47,-0.75
28.186981,9.53,-0.43,0.39
28.257965,10.71,-0.47,0.31
28.32901,11.26,-1.18,-2.16
28.399994,11.34,2.16,8.59
28.470978,8.98,-4,0.71
28.541962,10.63,1.02,2.63
28.613007,6.98,-2.04,0.51
28.68399,8.12,-1.06,-0.35
28.754974,7.81,-0.71,-0.43
28.825958,8.55,-0.98,-0.78
28.897003,11.45,-1.26,-0.16
28.967987,12.94,2.67,-2.24
29.03897,13.38,-8.59,0.78
29.110016,3.18,1.1,1.45
29.181,10.63,-4.08,1.65
29.251984,7.85,-0.9,0.98
29.322968,7.69,-1.26,0.39
29.394012,8.04,-0.63,0.24
29.464996,9.3,0.47,-0.35
29.53598,9.41,-0.67,-0.78
29.606964,10.55,-0.12,1.96
29.678009,12.2,-2.67,0.39
29.748993,10.87,0.39,4.67
29.819977,9.89,-1.06,-0.39
29.89096,9.96,0.39,2.67
29.962006,6.67,-1.73,0.12
30.03299,8.39,-0.78,-0.47
30.103973,8.28,0.04,-0.55
30.174957,9.45,-0.39,-0.16
30.246002,11.1,-0.47,-0.39
30.316986,13.53,1.29,1.65
30.38797,13.34,-7.3,1.77
30.459015,8.87,-1.96,2.67
30.529999,6.67,-1.84,2.12
30.600983,8.9,-0.16,1.57
30.671967,8.28,-1.02,0.39
30.743011,8.08,-0.27,0.63
30.813995,8.98,0.04,0.39
30.88498,9.96,-0.51,-0.39
30.955963,10.79,-0.51,1.57
31.027008,12.12,-2.63,0
31.097992,9.89,0.67,8.98
31.168976,9.02,-1.92,0.24
31.23996,10.47,1.02,0.24
31.311005,7.02,-2,1.84
31.381989,8.55,-1.1,0.2
31.452972,8.28,-0.43,-0.55
31.523956,8.71,-0.08,-0.51
31.595001,9.96,-0.86,-0.04
31.665985,13.1,1.65,-0.16
31.736969,13.53,-5.73,1.73
31.808014,5.1,-1.61,-0.08
31.878998,9.85,-4.2,2.82
31.949982,7.88,0.08,0.16
32.020966,8.08,-1.06,1.29
32.09201,7.53,-1.06,0.82
32.162994,9.89,-0.71,-2.08
32.23398,9.41,0.04,-0.16
32.304962,9.3,0.71,1.65
32.376007,10.59,-1.49,-0.67
32.44699,12.32,-4.51,5.53
32.517975,8.16,-4.55,5.61
32.58896,8.36,4.28,2.63
32.660004,7.85,-3.02,3.84
32.730988,7.34,0.82,0.35
32.80197,8.75,-0.98,0.86
32.872955,8.94,0.39,-0.12
32.944,8.98,0.75,0.08
33.014984,10.16,-1.02,-0.39
33.085968,13.45,0.51,-1.1
33.157013,12.98,-6.63,2
33.227997,1.1,2.51,1.61
33.29898,10.2,-4.35,2.59
33.369965,9.53,-2.71,0.2
33.44101,8.79,-0.43,1.29
33.511993,8.16,-1.53,0.82
33.582977,8.28,-0.94,0.2
33.65396,10.2,-0.67,0.2
33.725006,8.9,2.98,-1.53
33.79599,12,-0.27,-1.96
33.866974,10.79,1.18,6.71
33.937958,7.53,-6.67,4.82
34.009003,9.02,4.31,-0.51
34.079987,7.49,-1.41,4.39
34.15097,7.57,-1.02,-1.37
34.222015,8.67,-1.65,0.55
34.293,8.67,-0.59,-1.22
34.363983,8.9,1.18,-0.12
34.434967,10,-0.51,-1.29
34.506012,12.08,1.96,-3.1
34.576996,12.87,-6.79,3.18
34.64798,6.83,-2.86,3.8
34.718964,8.08,-2.51,2.55
34.79001,8.12,-0.59,0.47
34.860992,7.57,-1.84,0.82
34.931976,8.79,-0.24,0.39
35.00296,8.55,-0.24,-0.04
35.074005,10.24,-0.24,1.18
35.14499,10.47,-0.47,-0.98
35.215973,13.42,-2.24,-1.26
35.286957,9.02,-1.26,13.77
35.358,8.12,0.82,-0.08
35.428986,8.47,-2.12,4.47
35.49997,6.86,0.35,-1.8
35.571014,8.71,-1.57,0.43
35.642,7.92,0.2,-0.63
35.712982,9.92,-0.04,-1.37
35.783966,11.38,-0.39,-2.2
35.85501,13.26,-1.1,4.16
35.925995,8.75,-2.31,2.51
35.99698,10.59,-5.3,4
36.067963,7.73,-1.92,0.43
36.139008,7.85,1.29,0.63
36.20999,8.83,-1.33,-0.2
36.280975,8.51,0.27,0.82
36.35196,9.73,-0.47,-1.14
36.423004,9.38,1.92,-0.2
36.493988,11.14,-1.53,0.47
36.564972,11.96,0.86,3.06
36.635956,9.57,-4.86,7.73
36.707,8.32,3.92,2.31
36.777985,6.24,-2.12,3.14
36.84897,7.69,-0.82,-0.51
36.920013,8.24,-0.16,0.35
36.990997,8,-0.35,-0.98
37.06198,9.65,-0.2,-1.61
37.132965,15.02,0.86,-0.94
37.20401,13.65,-3.26,0.63
37.274994,6.2,0.39,1.73
37.345978,8.04,-5.1,4.31
37.41696,8.24,-0.12,0.75
37.488007,8.28,-0.43,1.33
37.55899,8.36,-0.67,0.08
37.629974,8.2,-0.63,0.35
37.70096,10.24,-0.24,0
37.772003,9.1,1.53,-0.24
37.842987,11.73,-1.22,-1.49
37.91397,10.4,0.9,8.98
37.985016,9.06,-6.63,5.37
38.056,8.32,6.24,5.84
38.126984,6.32,-1.69,2.16
38.197968,7.45,-0.12,-0.39
38.269012,7.96,-0.43,0.2
38.339996,8.12,-0.08,-0.59
38.41098,10.4,-0.2,-0.27
38.481964,11.92,1.77,-2.47
38.55301,13.69,-4.82,2.55
38.623993,6.39,0.35,3.49
38.694977,12.36,-6.67,2.9
38.76596,8,-1.53,1.92
38.837006,7.45,0.55,1.53
38.90799,8.32,-1.88,0.47
38.978973,8.24,0.51,-0.51
39.049957,9.34,-0.08,1.41
39.121002,9.89,0.47,-0.47
39.191986,11.73,-1.06,-1.77
39.26297,10.12,1.88,9.02
39.334015,9.89,-5.06,5.49
39.405,9.57,2.79,1.37
39.475983,6,-1.57,2.55
39.546967,7.49,-0.9,-0.59
39.61801,8.12,-1.57,0.51
39.688995,8.67,-0.08,-0.24
39.75998,10.16,-0.2,-0.24
39.830963,13.77,0.43,-0.24
39.902008,11.26,-4.59,0.94
39.972992,4.2,2.98,1.8
40.043976,7.96,-5.53,3.18
40.11496,8,-0.39,1.18
40.186005,7.85,-1.02,2.31
40.25699,8.24,-1.06,-0.24
40.327972,8.28,1.02,0.31
40.398956,10.4,-0.75,0.82
40.47,9.61,1.1,0.78
40.540985,13.02,-3.53,-0.55
40.61197,9.49,-0.31,12.83
40.683014,11.92,-2.75,-4.47
40.753998,8.39,1.8,2.55
40.82498,6,-1.96,0.08
40.895966,8.24,-1.14,1.33
40.96701,8.28,-0.51,-0.94
41.037994,9.81,1.18,0.63
41.10898,10,1.1,-1.53
41.179962,13.38,0.94,2.43
41.251007,11.49,-2.82,1.53
41.32199,11.77,-5.45,1.57
41.392975,7.69,-0.86,1.92
41.46396,7.73,1.49,1.14
41.535004,7.96,-2.16,-0.24
41.605988,8.32,-0.08,0.12
41.67697,9.14,0.16,1.88
41.747955,10.12,0.16,-0.2
41.819,11.45,-0.2,-2.82
41.889984,10.2,1.73,14.32
41.960968,7.96,-6.94,5.53
42.032013,9.34,3.22,2.24
42.102997,6.9,-1.33,0.12
42.17398,8.24,-0.59,-1.1
42.244965,8.32,-0.94,-0.47
42.31601,8.47,0.16,-1.53
42.386993,10.9,-0.24,-0.59
42.457977,11.96,2.04,-1.73
42.52896,12.55,-4.08,0.94
42.600006,3.02,1.29,2.75
42.67099,10.98,-6,2.47
42.741974,8.16,-2.24,0.78
42.812958,7.73,-0.47,1.84
42.884003,8.55,-0.55,-0.43
42.954987,8.71,0.2,-0.12
43.02597,10.32,-0.82,0.31
43.097015,9.45,0.82,0.94
43.168,12.16,-2.35,-1.41
43.238983,10.83,2.31,11.1
43.309967,9.06,-7.92,3.65
43.381012,9.14,3.37,1.02
43.451996,5.92,-3.18,2.31
43.52298,8.16,0.71,1.65
43.593964,8.36,-1.1,-0.86
43.66501,8.51,0.31,-0.75
43.735992,10.98,-0.16,-0.75
43.806976,14.32,0.31,-1.37
43.87796,12.51,-2.86,-0.24
43.949005,3.3,1.26,3.37
44.01999,11.85,-5.41,1.96
44.090973,8.51,-1.02,-0.08
44.161957,8.04,0.08,1.18
44.233,7.92,-0.55,-0.08
44.303986,8.71,-0.63,-0.24
44.37497,9.92,-0.78,1.06
44.446014,10.71,0.12,-0.16
44.517,11.96,1.02,-2.75
44.587982,9.73,-1.26,12.2
44.658966,10.2,-3.49,1.84
44.73001,9.53,1.06,6.9
44.800995,6.55,-1.33,-0.08
44.87198,8.04,-0.43,0.27
44.942963,7.96,-0.71,-0.51
45.014008,9.14,-0.51,-1.02
45.08499,11.81,-2.08,1.73
45.155975,13.42,3.88,1.88
45.22696,12.75,-8.67,2.71
45.298004,6.28,-1.57,2.31
45.368988,7.22,-2.79,1.77
45.439972,7.49,1.26,0.47
45.510956,8.51,-1.26,0.2
45.582,8.63,-0.67,-0.04
45.652985,9.18,-0.51,0.47
45.72397,10.2,0.67,-0.31
45.795013,10.67,-0.35,-0.24
45.865997,10.59,-1.14,5.41
45.93698,9.38,-4.08,7.61
46.007965,10.4,3.57,-1.88
46.07901,7.14,-1.65,1.73
46.149994,7.73,-1.96,-0.24
46.220978,7.81,1.22,-0.27
46.29196,9.06,-1.18,-0.12
46.363007,9.61,0.67,0.04
46.43399,14.12,0.43,-0.9
46.504974,11.02,-3.22,0.75
46.57596,2.82,2.28,2.28
46.647003,8.08,-3.65,2.31
46.717987,8.67,-0.75,0.71
46.78897,7.73,-0.78,1.29
46.860016,7.77,-0.31,0.24
46.931,8.51,-0.08,0.04
47.001984,9.53,-0.55,0.55
47.072968,10.67,-0.98,2
47.144012,12.32,-1.41,-2.98
47.214996,10.28,2.71,13.1
47.28598,7.92,-2.71,-0.59
47.356964,10.08,0.27,5.1
47.42801,6.51,-1.41,1.57
47.498993,8.2,-0.04,-0.55
47.569977,8.43,-1.02,0
47.64096,9.3,-0.39,-0.75
47.712006,10.67,-0.47,-0.24
47.78299,13.34,0.98,1.84
47.853973,10.47,-3.53,2.47
47.924957,9.45,-3.18,3.8
47.996002,7.49,-2.16,2
48.066986,7.96,0.78,0.86
48.13797,8.43,-1.26,0.94
48.209015,8.12,-0.55,-0.43
48.28,9.14,0,1.02
48.350983,9.81,1.96,0.9
48.421967,10.12,-0.78,-0.71
48.49301,11.1,-3.84,7.1
48.563995,9.38,-0.94,6.71
48.63498,9.26,2.67,-1.77
48.705963,6.35,-1.61,3.06
48.777008,7.77,-0.16,-0.9
48.847992,7.92,-0.31,-0.51
48.918976,7.88,-0.59,0.12
48.98996,11.3,-2.08,1.02
49.061005,13.34,4.31,-3.14
49.13199,11.81,-9.3,5.61
49.202972,0.82,1.18,3.02
49.273956,12.16,-3.84,1.84
49.345,8,-3.18,-0.9
49.415985,6.83,0.31,0.63
49.48697,8.36,-1.53,0.35
49.558014,8.39,-0.98,0.24
49.628998,9.02,-0.63,-0.47
49.69998,9.77,1.88,2.12
49.770966,12.59,-3.45,-1.92
49.84201,10.83,0.59,13.65
49.912994,8.9,2.98,-2.08
49.98398,8.43,-1.26,4.04
50.054962,6.55,-2.2,-0.75
50.126007,7.65,0.12,0.39
50.19699,8.12,-0.59,-1.06
50.267975,10,0.08,-2.28
50.33896,15.02,-0.75,-0.78
50.410004,13.3,-6,2.71
50.480988,6.47,1.69,2.08
50.55197,8.24,-3.06,3.49
50.622955,7.53,-0.63,1.45
50.694,7.69,-1.57,1.65
50.764984,8,0.2,0.67
50.835968,8.79,0.31,1.18
50.907013,8.87,0.04,-1.18
50.977997,10.12,-0.31,3.57
51.04898,11.49,-2,-3.37
51.119965,10.04,4.28,12.91
51.19101,9.38,-9.49,3.1
51.261993,9.57,3.53,4.86
51.332977,5.73,-1.61,0.63
51.40396,8.43,-0.43,0
51.475006,7.88,-1.37,-0.82
51.54599,8.83,0.78,-0.94
51.616974,10.08,-0.98,-0.47
51.687958,13.85,1.22,-2.51
51.759003,14.2,-5.26,3.88
51.829987,2.47,0.71,0.55
51.90097,10.04,-5.06,3.88
51.972015,8.43,0.59,-0.63
52.043,8.39,-1.22,1.18
52.113983,8.12,-0.43,0.39
52.184967,8.32,-0.55,0.27
52.256012,9.45,0.24,0.51
52.326996,10.04,0.12,1.06
52.39798,12.55,-1.53,-0.59
52.468964,10.87,2.39,12.63
52.54001,10.16,-7.18,2.31
52.610992,8.51,2,0.71
52.681976,6.32,-0.59,0.27
52.75296,8.9,-1.22,1.26
52.824005,8.2,-0.71,-0.2
52.89499,9.22,0.94,-1.02
52.965973,11.3,-1.96,1.77
53.036957,12.75,2.86,0.2
53.108,13.96,-8.24,4.2
53.178986,5.96,-0.63,0.39
53.24997,6.63,-2.55,2.67
53.321014,8.12,-0.12,0.55
53.392,8.67,-0.9,1.02
53.462982,7.96,0.04,-0.47
53.533966,8.94,-0.24,0.9
53.60501,10.75,-0.12,0.31
53.675995,10.47,0.71,0.67
53.74698,11.26,-1.73,0.94
53.817963,10.16,-2.43,8.28
53.889008,9.85,2.31,1.92
53.95999,6.98,-3.14,-0.12
54.030975,7.37,-0.63,0.47
54.10196,8.47,-1.33,0.63
54.173004,8.75,-0.59,-0.51
54.243988,9.14,0.47,-0.94
54.314972,11.1,-0.71,-1.02
54.385956,11.85,-0.47,-1.33
54.457,13.14,-4.47,3.02
54.527985,5.88,0.43,4.9
54.59897,11.57,-6.43,0.67
54.670013,6.47,0.59,1.53
54.740997,7.18,-0.94,0.9
54.81198,9.06,-0.43,0.35
54.882965,8.16,0,0.55
54.95401,9.61,-1.61,2.28
55.024994,9.89,3.1,-2.35
55.095978,12.51,0.08,1.57
55.16696,11.3,-3.92,8.24
55.238007,7.06,5.81,1.73
55.30899,8.94,-4.59,2.86
55.379974,6.75,1.26,-1.73
55.45096,8.67,-1.49,0.35
55.522003,7.81,-1.14,-0.71
55.592987,11.41,0.31,-1.02
55.66397,12.08,1.02,-2.24
55.735016,12.83,-4.63,5.65
55.806,4.94,-1.77,0.82
55.876984,11.96,-5.84,1.65
55.947968,7.61,-1.37,-0.43
56.019012,7.88,-0.94,1.53
56.089996,8.36,-1.49,0.94
56.16098,7.02,0,3.22
56.231964,9.38,-0.08,0.51
56.30301,8.98,0.55,-0.08
56.373993,10.83,0.12,-2.75
56.444977,10.16,1.33,13.89
56.51596,8.63,-6.28,4.08
56.587006,8.32,3.8,0.04
56.65799,7.3,-1.33,1.53
56.728973,8.16,0.47,-1.33
56.799957,7.85,-1.02,0.63
56.871002,8.71,0.27,-0.55
56.941986,10.32,-0.59,0.16
57.01297,12.75,1.53,-1.96
57.084015,13.38,-8.43,4.86
57.155,3.92,0.51,1.49
57.225983,8.36,-4.24,3.96
57.296967,8.16,0.67,1.77
57.36801,8.12,-2.71,0.94
57.438995,7.85,0.43,0.86
57.50998,8.32,-0.55,0.59
57.580963,10.12,0.47,0.78
57.652008,9.49,0.43,0.51
57.722992,11.57,-0.55,-2.08
57.793976,8.9,1.41,20.01
57.86496,11.57,-7.81,-1.57
57.936005,9.06,1.57,3.22
58.00699,6.59,-0.9,-0.67
58.077972,8.63,-0.39,0.63
58.148956,8.2,-0.94,-0.35
58.22,10,-0.12,-0.24
58.290985,10.75,-0.51,-0.86
58.36197,14,-0.51,-0.55
58.433014,9.41,-3.73,4.08
58.503998,9.3,-3.57,0.67
58.57498,8.04,-0.08,4
58.645966,8.32,-0.24,1.88
58.71701,8.36,-1.53,-0.08
58.787994,8.28,0.04,1.1
58.85898,8.98,-0.27,0.04
58.929962,10.2,0.35,-0.39
59.001007,10.32,-0.04,1.73
59.07199,11.45,-2.94,1.65
59.142975,11.38,0.39,5.22
59.21396,9.69,3.22,1.18
59.285004,7.26,1.14,3.33
59.355988,7.41,-0.78,-1.26
59.42697,8.16,-0.71,0.59
59.497955,8.16,-0.04,-0.67
59.569,10.2,0.27,-0.9
59.639984,12.12,0.78,-1.33
59.710968,12.63,-2.04,3.53
59.782013,4.79,1.18,1.1
59.852997,10.59,-3.45,0.55
59.92398,8.2,0.12,0.43
59.994965,8,-0.9,0.67
60.06601,8.16,-0.12,0.43
60.136993,8.08,-0.16,1.14
60.207977,9.38,-0.12,0.08
60.27896,10.16,0.27,1.06
60.350006,12.55,-0.31,-1.53
60.42099,11.22,0.51,4.98
60.491974,9.18,-2.86,0.08
60.562958,10.36,-0.82,1.61
60.634003,7.14,-0.27,1.29
60.704987,8.24,-0.43,-0.94
60.77597,8.08,-0.63,0.08
60.847015,9.41,-0.35,-0.82
60.918,10.04,-0.39,-0.86
60.988983,13.42,2.08,-0.82
61.059967,13.3,-8.28,4.9
61.131012,6.94,-0.78,1.37
61.201996,8.75,-1.06,3.06
61.27298,7.73,-0.04,1.22
61.343964,8,-2.24,-0.2
61.41501,8.2,0.27,0.86
61.485992,9.69,-0.04,0.47
61.556976,10.04,-1.33,-0.59
61.62796,10.71,-0.59,1.29
61.699005,11.14,-3.69,1.69
61.76999,10.2,-3.18,7.61
61.840973,9.61,2.71,0.04
61.911957,7.41,-1.49,2.08
61.983,7.3,-0.16,-1.06
62.053986,8.63,-1.14,0.08
62.12497,8.94,0.39,-0.55
62.196014,9.45,0.08,-0.71
62.267,11.1,0.31,-1.8
62.337982,12.24,1.73,2.28
62.408966,12.91,-7.77,4
62.48001,11.26,-2.9,2.51
62.550995,7.49,-0.86,2.39
62.62198,8.04,-0.24,1.8
62.692963,7.88,-2.08,-0.39
62.764008,8.59,-0.71,1.41
62.83499,9.41,1.1,0.2
62.905975,9.57,0.47,0.12
62.97696,10.4,-0.43,0.08
63.048004,12.87,-1.26,-1.22
63.118988,9.92,1.22,12.63
63.189972,8.39,-3.53,0.98
63.260956,9.57,-0.78,2.75
63.332,7.02,-0.55,-1.41
63.402985,8.36,-1.06,0.71
63.47397,8.47,0.16,-0.12
63.545013,9.3,0.94,-0.39
63.615997,10.83,-1.84,0.31
63.68698,13.22,1.57,1.22
63.757965,12.83,-9.02,3.88
63.82901,7.06,-1.14,3.22
63.899994,7.22,-2.55,2.55
63.970978,7.77,-0.12,0.59
64.04196,8.75,-1.29,0.43
64.11301,8.71,-0.16,-0.2
64.18399,9.45,0.55,0
64.254974,9.73,0.43,-0.71
64.32596,10.43,0.08,0.82
64.397,10.75,-2.31,5.92
64.46799,9.73,-5.65,6.51
64.53897,9.41,5.45,-0.16
64.610016,6.9,-0.59,3.65
64.681,7.53,-0.67,-2.04
64.75198,8.39,-0.71,0.39
64.82297,8.16,0.31,-0.94
64.89401,10.55,0.47,1.26
64.965,11.61,2.43,-4.39
65.03598,13.1,-2.86,4.04
65.106964,5.14,0.47,2.9
65.17801,12.2,-4.86,2.16
65.24899,7.88,-1.57,-0.12
65.31998,7.41,-0.04,1.45
65.39096,8.12,-0.31,0.55
65.462006,8.51,-0.16,0.16
65.53299,9.77,-1.53,-1.06
65.60397,9.45,0.98,1.37
65.67496,11.45,-2.08,2.16
65.746,10.2,-0.86,9.77
65.816986,10.9,1.69,1.26
65.88797,7.37,-0.63,0.04
65.959015,6.51,-0.78,-0.04
66.03,8.08,-0.08,-1.18
66.10098,8.47,0.12,-0.51
66.17197,10.32,0.71,0.12
66.24301,11.14,0.51,-2.94
66.313995,12.47,-0.2,7.02
66.38498,10.98,-4.51,2.12
66.45596,10.2,-3.06,3.73
66.52701,7.49,-1.37,2
66.59799,7.65,1.49,2.04
66.668976,8.36,-0.55,-0.35
66.73996,8.43,-0.39,-0.47
66.811005,9.06,-0.08,-0.2
66.88199,10.04,1.45,0.08
66.95297,10.94,0.31,-1.26
67.02396,10.63,-0.12,12.2
67.095,9.69,-7.34,3.77
67.165985,9.18,4.63,3.53
67.23697,6.83,-0.94,0.63
67.308014,8.08,-0.94,-1.29
67.379,8.63,0.16,-0.55
67.44998,8.83,0.24,-1.33
67.520966,10.47,-1.33,0.04
67.59201,13.1,2.51,-2.67
67.662994,12.16,-4.63,0.16
67.73398,4.94,0.04,1.53
67.80496,8.36,-5.37,3.41
67.87601,8.83,-0.04,-0.47
67.94699,8.24,0.08,1.57
68.017975,8.2,-0.39,0.47
68.08896,8.24,-0.24,-0.55
68.16,9.89,0.24,1.41
68.23099,10.08,-0.9,1.33
68.30197,11.53,-1.33,0.12
68.372955,9.77,0.04,7.92
68.444,10.04,1.33,2.24
68.514984,7.22,-1.26,1.02
68.58597,7.57,-0.78,1.92
68.65701,7.92,1.77,-1.06
68.728,8.67,-0.47,-1.02
68.79898,9.77,0.47,-1.06
68.869965,10.75,-1.22,0.2
68.94101,12.43,0.43,2.98
69.01199,11.41,-4.04,4.71
69.08298,8.04,-1.33,4
69.15396,7.85,-2.28,1.96
69.225006,7.77,1.33,1.06
69.29599,8.55,-1.1,-0.2
69.366974,8.63,0.55,1.41
69.43796,9.61,-0.47,1.37
69.509,8.16,2.04,-1.02
69.57999,10.08,-0.24,1.49
69.65097,11.41,-3.14,1.57
69.722015,9.77,-3.02,2.94
69.793,9.06,1.37,3.96
69.86398,10.16,-4.67,-5.41
69.93497,7.92,-0.78,2.2
70.00601,9.92,-2.12,2.28
70.076996,8.63,-1.18,-0.08
70.14798,8.59,-1.37,0.08
70.21896,10.08,-1.88,2.16
70.29001,9.38,-1.92,2.63
70.36099,8.24,1.06,1.77
70.43198,9.1,-0.78,2.75
70.50296,9.34,-1.29,1.69
70.574005,9.14,-0.51,1.65
70.64499,9.45,-0.43,1.8
NAME:,walk_4_1.csv,,
EXPERIMENT TIME:,18/06/2023 05:35,,
ACTIVITY TYPE:,Running,,
COUNT OF ACTUAL STEPS: ,100,,
,,,
Time [sec],ACC X,ACC Y,ACC Z
0,9.49,-0.12,0.9
0.07098389,9.41,-0.04,0.9
0.14196777,9.57,-0.2,0.82
0.2130127,9.53,-0.04,0.86
0.28399658,9.57,-0.12,0.94
0.35498047,9.69,-0.63,1.49
0.42596436,9.34,-1.96,0.75
0.49700928,9.45,-0.67,0.75
0.56799316,10.16,0.04,1.41
0.63897705,9.22,-2.47,1.88
0.70996094,8.67,-0.63,1.73
0.78100586,10.4,0.82,-1.61
0.85198975,9.96,0.78,0.16
0.92297363,8.94,-0.43,-0.9
0.9939575,9.41,-0.24,-0.9
1.0650024,9.26,0.24,-1.33
1.1359863,9.02,0,-1.29
1.2069702,9.49,0.04,-1.22
1.2780151,10.94,-0.59,-1.69
1.348999,12.16,-0.63,1.57
1.4199829,9.61,-4.98,2.31
1.4909668,8,-2.98,0.82
1.5620117,7.41,-2.63,4.28
1.6329956,9.77,-3.3,2.16
1.7039795,8.08,-0.16,0.94
1.7749634,8.12,-0.75,1.84
1.8460083,8.36,-0.86,0.59
1.9169922,8.36,-0.24,1.14
1.9879761,9.92,0.67,1.88
2.05896,10,-0.82,0.27
2.130005,10.24,0.94,1.33
2.2009888,12.08,-2.2,5.73
2.2719727,8.98,-3.96,5.3
2.3429565,9.41,3.18,1.88
2.4140015,7.14,-0.63,2.39
2.4849854,7.88,-1.88,0
2.5559692,7.57,0,0.35
2.6270142,8.51,-0.08,-0.08
2.697998,9.41,-1.06,-0.59
2.768982,10.28,-1.49,-1.88
2.8399658,13.18,-1.18,0.82
2.9110107,10.51,-3.45,3.41
2.9819946,9.85,-2.24,2.71
3.0529785,8.28,-2.75,2.43
3.1239624,8.12,0.55,1.8
3.1950073,7.73,-2.12,0.27
3.2659912,8.94,-0.04,1.22
3.336975,8.75,0,0.98
3.407959,9.96,-0.47,0.16
3.479004,10.04,0.67,1.8
3.5499878,11.18,-0.75,1.73
3.6209717,12,-3.73,4.86
3.6919556,7.57,2.39,-1.53
3.7630005,9.45,0.12,2.67
3.8339844,7.14,-2.24,0.08
3.9049683,8.94,0.51,0.12
3.9760132,8.55,-1.06,-0.24
4.046997,9.41,0.2,-0.39
4.117981,9.73,-0.98,0.67
4.188965,13.73,0.16,2.04
4.26001,11.45,-2.63,0.67
4.3309937,7.69,-0.86,1.8
4.4019775,7.57,-3.33,2.31
4.4729614,8.55,0.27,0.82
4.5440063,8.43,-2.51,1.49
4.61499,8.71,0.04,0.47
4.685974,9.96,1.22,-0.27
4.756958,9.41,-0.27,-0.24
4.828003,10.63,0.86,0.98
4.898987,11.65,0.67,2.16
4.9699707,9.89,-0.94,6.63
5.0410156,8.98,-1.41,0.47
5.1119995,8.39,1.77,1.53
5.1829834,7.37,-1.33,2.04
5.2539673,7.92,-0.71,1.41
5.325012,8.59,-0.35,-0.08
5.395996,9.02,0.35,-0.59
5.46698,10.83,-1.92,-0.31
5.537964,12.43,0.55,-1.02
5.609009,12.16,-2.47,2
5.6799927,5.65,0.47,1.18
5.7509766,9.3,-3.8,2.71
5.8219604,9.77,-0.63,0.94
5.8930054,7.96,-0.16,0.9
5.9639893,8.71,-0.78,-0.39
6.034973,8.2,0.24,0.9
6.105957,9.22,-0.55,0.31
6.177002,10.08,-0.47,0.35
6.247986,11.18,-0.16,0
6.3189697,11.57,-0.55,3.1
6.3900146,9.45,-4.24,2.2
6.4609985,9.89,0.16,0.82
6.5319824,7.85,-0.9,0.82
6.6029663,7.81,-0.24,-0.9
6.674011,9.1,-0.47,-0.08
6.744995,8.83,-0.39,-1.22
6.815979,9.26,-0.08,-0.98
6.886963,9.65,-0.51,-1.57
6.958008,15.1,-1.49,2.12
7.0289917,5.96,0.86,2.31
7.0999756,9.34,-3.14,1.41
7.1709595,8.08,-0.04,2.12
7.2420044,7.88,-0.55,1.22
7.3129883,8.79,-1.77,-0.12
7.383972,8.83,-0.86,1.41
7.454956,9.18,0.08,0.31
7.526001,9.73,0.55,0.35
7.596985,9.89,-0.31,1.26
7.6679688,11.1,-1.22,0.51
7.7390137,11.38,-0.86,6.16
7.8099976,8.79,-2.75,2.55
7.8809814,10.51,1.02,2.16
7.9519653,7.34,-0.55,1.53
8.02301,8.75,-0.08,-1.14
8.093994,8,-0.27,-0.24
8.164978,8.47,-0.51,-0.71
8.235962,9.45,-0.59,0.12
8.307007,13.14,-0.2,-1.57
8.377991,15.3,-0.71,2.82
8.448975,7.45,-0.31,1.45
8.5199585,8.16,-3.02,1.8
8.591003,8.87,0.12,0.9
8.661987,7.81,-0.75,0.82
8.732971,8.24,-0.27,0.55
8.803955,8.63,-0.2,0.51
8.875,10,-0.31,0.9
8.945984,9.65,-0.2,1.77
9.016968,10.12,-0.12,-0.98
9.088013,12.59,-1.57,4.98
9.158997,8.9,-4.86,4.59
9.22998,11.22,0.63,1.02
9.300964,7.69,-0.2,1.84
9.372009,7.73,-0.2,-0.9
9.442993,8.47,-1.26,0.31
9.513977,8.43,0.27,-0.9
9.584961,10.36,-0.24,-0.67
9.656006,10.67,0.08,-1.73
9.72699,12.55,-0.55,0.82
9.797974,9.89,-3.69,5.81
9.8689575,8.71,-2.2,2.71
9.940002,8.59,-1.77,2.39
10.010986,8,0.43,1.18
10.08197,8.12,-1.84,1.26
10.153015,8.24,-0.59,0.67
10.223999,9.73,0.04,0.86
10.294983,9.18,-0.47,0.39
10.365967,10.28,0.75,1.06
10.437012,10.4,0.27,0.59
10.507996,11.06,-1.37,4.2
10.5789795,11.26,-5.69,4.51
10.649963,9.57,1.65,1.96
10.721008,6.9,-1.8,1.88
10.791992,7.85,-0.75,-0.35
10.862976,8.59,-0.39,0.2
10.93396,8.94,0.24,-0.67
11.005005,9.89,-0.78,-0.94
11.075989,12.75,2.43,-2.51
11.146973,12.71,-2.75,2.59
11.217957,5.88,-0.98,1.84
11.289001,10.28,-2.24,2.08
11.359985,8.43,-1.53,0.27
11.430969,8,-1.02,0.39
11.502014,8.12,-0.12,1.1
11.572998,7.85,-0.51,1.37
11.643982,9.77,0.31,0.47
11.714966,9.22,0.59,0.71
11.786011,10.9,-0.35,-1.02
11.856995,11.3,0.39,8.16
11.9279785,10.28,-6.86,6.43
11.998962,9.89,3.06,1.14
12.070007,7.06,-0.59,2.2
12.140991,7.77,-0.94,1.22
12.211975,8.39,0,0.51
12.282959,8.75,0.27,-0.51
12.354004,9.65,1.02,-0.75
12.424988,10.47,-1.1,-1.61
12.495972,13.96,0.08,1.14
12.566956,8.98,-4.86,4.2
12.6380005,8.87,-3.37,2.63
12.708984,8.79,-0.67,0.82
12.779968,8.24,0.67,1.45
12.851013,8.32,-1.22,0.2
12.921997,8.51,-0.39,0.9
12.992981,9.3,0.04,1.69
13.063965,9.3,1.1,0.43
13.13501,10.83,-0.43,-0.78
13.205994,11.45,1.26,4.12
13.276978,9.45,-5.14,4.59
13.347961,9.53,0.67,1.26
13.419006,8.79,0.24,3.14
13.48999,7.49,-1.41,-1.14
13.560974,7.92,-0.16,-1.22
13.631958,8.04,-0.59,-0.59
13.703003,9.77,0.2,-0.43
13.773987,10.83,-1.45,-0.43
13.844971,14,0.59,3.65
13.916016,10.2,-3.77,3.26
13.9869995,8.39,-2.98,2.86
14.057983,8.16,-1.65,2.31
14.128967,7.77,0.78,0.27
14.200012,8.79,-1.69,1.57
14.270996,8.39,-0.51,0.75
14.34198,9.41,0.27,0.98
14.412964,9.61,0.04,-0.12
14.484009,10.71,-0.12,1.33
14.554993,12.47,-3.02,2.63
14.625977,10.71,-3.37,5.69
14.69696,9.18,5.37,1.92
14.768005,7.45,-1.73,1.88
14.838989,7.53,-0.35,0.71
14.909973,8.04,0.35,-0.55
14.980957,8.36,-0.2,-0.47
15.052002,9.92,-0.51,-0.94
15.122986,11.65,1.1,-2.79
15.19397,12.98,-0.51,2
15.265015,6.51,-1.14,1.57
15.335999,10.04,-4.67,2.94
15.406982,8.2,-1.26,2.2
15.477966,7.53,-1.22,1.77
15.549011,8.59,-0.43,0.39
15.619995,9.61,0,-0.27
15.690979,9.38,-0.78,0.39
15.761963,9.61,1.8,1.29
15.833008,11.73,-1.33,-1.77
15.903992,10.36,-0.2,10.28
15.974976,10.04,-5.06,4.75
16.04596,8.67,1.8,3.26
16.117004,6.51,-1.69,2.35
16.187988,8.51,-0.55,-1.53
16.258972,8.94,-0.75,-0.35
16.329956,8.59,0.63,-0.51
16.401001,10.24,-1.22,1.65
16.471985,12.36,2.04,-0.27
16.542969,12.98,-7.26,1.61
16.614014,4.9,-0.67,1.53
16.684998,10.16,-4.67,2.94
16.755981,7.73,1.02,0.86
16.826965,8.24,-2.39,1.45
16.89801,8.28,-0.78,1.06
16.968994,9.06,1.18,0.98
17.039978,9.3,0.35,-0.31
17.110962,10.04,0.35,0.43
17.182007,11.41,-2.67,1.57
17.25299,9.49,-2.04,2.39
17.323975,10.04,1.8,0.71
17.394958,7.61,2.16,2.47
17.466003,6.94,-0.24,-0.39
17.536987,8.87,-0.16,0.39
17.607971,8.39,-0.12,-0.63
17.678955,10.04,-0.12,-1.57
17.75,10.55,-1.33,-0.78
17.820984,13.93,-1.29,0.9
17.891968,8,-1.1,2.16
17.963013,9.22,-3.33,1.49
18.033997,7.77,-1.1,0.12
18.10498,7.96,-0.75,1.29
18.175964,8.83,-0.75,0
18.24701,8.83,0.2,0.59
18.317993,9.45,-0.43,-0.39
18.388977,10.32,0.04,0.86
18.45996,12.16,-0.55,-1.84
18.531006,11.61,-1.26,3.8
18.60199,9.26,-3.77,0.24
18.672974,10.32,0.2,0.2
18.743958,6.86,1.37,0.82
18.815002,8.16,0.47,-1.29
18.885986,8.71,-0.31,-0.82
18.95697,9.1,-0.71,-1.26
19.028015,9.73,-0.39,-1.14
19.098999,13.85,-0.67,-0.82
19.169983,9.1,-5.33,2.79
19.240967,10.12,-1.65,3.22
19.312012,8.94,-0.51,0.94
19.382996,7.77,0,1.26
19.45398,8.94,-2.35,0.27
19.524963,9.49,0.24,0.78
19.596008,8.87,-0.24,-0.16
19.666992,9.18,0.59,-0.27
19.737976,10.08,-0.51,0.04
19.80896,12.2,-0.35,1.49
19.880005,10.04,-1.37,1.88
19.950989,10.59,3.61,2.86
20.021973,8.67,-0.51,1.96
20.092957,6.59,-1.29,-1.02
20.164001,8.32,-0.16,0.51
20.234985,8.75,-0.39,-0.27
20.30597,9.14,-0.16,0.12
20.377014,10.32,-0.31,-1.61
20.447998,12.51,0.39,-0.9
20.518982,11.96,-4.98,4.63
20.589966,7.65,-1.45,1.49
20.66101,8.39,-2.67,1.22
20.731995,8.94,0.31,0.71
20.802979,8.67,-1.57,0.39
20.873962,8.16,-0.47,0.86
20.945007,9.02,-0.51,0.12
21.015991,9.73,-0.12,-0.59
21.086975,10.2,0.16,0.82
21.157959,11.85,-0.86,-0.86
21.229004,9.85,-1.1,5.45
21.299988,11.22,1.29,1.18
21.370972,9.49,-1.22,2.24
21.441956,6.71,-1.65,0.39
21.513,8.59,0.08,-0.63
21.583984,8.43,-0.39,0
21.654968,10.12,-0.08,-0.9
21.726013,9.77,-0.2,-0.39
21.796997,12.94,1.57,-2
21.867981,11.85,-5.14,3.33
21.938965,7.06,-1.02,1.53
22.01001,8.51,-2.04,2.55
22.080994,8.39,-0.27,0.78
22.151978,8.36,-0.59,0
22.222961,8.63,0,0.63
22.294006,9.81,0,-0.55
22.36499,9.81,0.16,-0.39
22.435974,10.67,-0.08,-0.63
22.506958,11.38,-3.06,2.08
22.578003,10.71,-3.18,4.59
22.648987,10.32,1.73,0.04
22.71997,7.73,-0.27,1.37
22.791016,7.73,-1.61,-1.37
22.862,8.75,0.27,-0.67
22.932983,8.39,-0.04,-1.37
23.003967,9.89,-0.63,-1.22
23.075012,12.51,0.71,-2.35
23.145996,12.98,-6.43,5.81
23.21698,6.83,1.29,2.59
23.287964,8.32,-2.2,0.9
23.359009,7.53,0.59,0.86
23.429993,8.2,-1.88,0.59
23.500977,8.39,0.24,0.86
23.57196,8.98,0.08,1.8
23.643005,9.34,-0.67,-0.82
23.71399,10.9,0.08,2.94
23.784973,12.98,-2.28,2.51
23.855957,10.16,-3.41,4.51
23.927002,10.32,1.33,0.82
23.997986,7.34,0.16,2.39
24.06897,7.85,-0.86,-0.43
24.140015,8.43,-1.26,1.02
24.210999,8.67,-0.9,-0.31
24.281982,10.04,0,-1.02
24.352966,10.75,0,-1.02
24.424011,11.57,-1.8,2.59
24.494995,7.22,-3.1,3.69
24.565979,9.53,-3.06,0.82
24.636963,7.88,-2.39,1.29
24.708008,7.3,-1.57,0.94
24.778992,8.51,-0.24,0.24
24.849976,9.22,0.75,-0.43
24.92096,9.96,-0.39,-1.06
24.992004,10.2,-0.51,-0.67
25.062988,12.47,-1.45,0.82
25.133972,10.32,-0.94,3.77
25.204956,10.2,1.57,1.69
25.276001,8.47,-0.67,0.04
25.346985,7.45,0.08,-0.35
25.417969,8.55,-0.86,0.04
25.489014,8.36,-0.2,-0.55
25.559998,9.61,0.24,-1.49
25.630981,10.83,-0.27,-1.02
25.701965,13.93,-1.8,2.75
25.77301,7.41,-1.02,2
25.843994,9.02,-2.43,1.77
25.914978,8.67,-0.9,0.86
25.985962,7.85,-0.94,1.49
26.057007,8.43,-0.55,0.9
26.12799,8.55,0.08,0.67
26.198975,9.41,-0.2,0.39
26.269958,9.77,-0.27,0.71
26.341003,10.47,0.94,-0.98
26.411987,11.41,-0.55,3.18
26.482971,10.63,-6,4.47
26.553955,9.69,2.31,2.35
26.625,7.34,-0.27,0.43
26.695984,8,-1.06,-0.51
26.766968,8.2,-0.24,0.51
26.838013,8.87,-0.2,-0.55
26.908997,10.04,-0.75,-0.63
26.97998,11.26,0.43,-0.43
27.050964,12.87,-1.06,0.78
27.12201,6.98,-1.8,1.96
27.192993,10.75,-4.28,2.16
27.263977,8.16,-1.06,0.94
27.33496,7.81,-1.53,0.98
27.406006,8.12,-0.39,-0.24
27.47699,9.96,0.2,0.94
27.547974,9.96,-0.9,0.16
27.618958,9.22,0.75,0.12
27.690002,11.89,-0.9,0.78
27.760986,10.87,-0.51,3.92
27.83197,11.65,-2.71,1.92
27.903015,8.47,-1.02,1.92
27.973999,6.47,-1.53,0.39
28.044983,9.14,-0.47,-0.86
28.115967,8.47,-0.35,0.67
28.187012,9.38,-0.2,-1.33
28.257996,9.1,-0.27,-0.35
28.32898,12.91,1.29,-2.12
28.399963,13.1,-5.57,5.96
28.471008,7.14,-1.77,1.02
28.541992,8.51,-1.77,1.65
28.612976,8,-0.55,0.9
28.68396,8.28,-1.8,1.1
28.755005,7.1,0.35,1.96
28.825989,9.53,0.16,0.27
28.896973,9.53,0.86,0.43
28.967957,11.34,0.39,0.63
29.039001,9.45,-0.51,2.79
29.109985,12.51,-5.57,3.1
29.18097,8.98,0.04,2.2
29.252014,6.35,-0.12,0.47
29.322998,8.79,-0.75,-0.24
29.393982,8.67,-0.43,0.2
29.464966,9.02,-0.2,-0.82
29.53601,10.71,-0.71,0.12
29.606995,13.26,1.65,-0.59
29.677979,11.65,-8.12,3.92
29.748962,8.51,-1.61,3.02
29.820007,8.59,-1.77,1.06
29.890991,7.85,0.43,1.29
29.961975,8.2,-1.88,0.08
30.032959,8.51,0.86,0.75
30.104004,8.94,0,0.55
30.174988,9.57,-0.27,0.47
30.245972,10.98,-0.35,0.55
30.316956,11.38,-2.04,4.79
30.388,11.65,-5.65,2.98
30.458984,9.96,-0.27,1.73
30.529968,5.61,-1.29,0.67
30.601013,8.32,-0.08,0.16
30.671997,8.39,-0.9,0.04
30.742981,8.9,0.55,-0.24
30.813965,10.67,-1.33,-0.59
30.88501,15.26,0.94,4
30.955994,4.94,2.75,-1.57
31.026978,12.04,-6.83,3.3
31.097961,8.75,-0.63,0.98
31.169006,8,-0.82,1.65
31.23999,8.2,-0.94,-0.04
31.310974,8.75,0,0.59
31.381958,9.22,-1.33,0.12
31.453003,10.12,0.43,1.41
31.523987,11.85,-1.14,1.26
31.59497,11.06,-2.82,5.69
31.666016,9.26,2.9,-0.16
31.737,8.87,-0.55,3.06
31.807983,7.49,-1.57,-1.65
31.878967,8.59,-0.39,0.35
31.950012,8.04,-0.75,-0.63
32.020996,9.73,0.2,-0.59
32.09198,10.51,-0.98,-0.67
32.162964,14.4,-1.18,2.63
32.23401,5.92,-0.59,-0.04
32.304993,10.32,-3.65,2.16
32.375977,9.02,-1.73,1.14
32.44696,7.45,0,1.14
32.518005,8.28,-0.27,0.16
32.58899,8.24,0.67,0.47
32.659973,9.73,-0.98,-0.16
32.730957,9.61,-0.04,1.65
32.802002,11.49,-0.12,-0.35
32.872986,10.94,-1.37,5.49
32.94397,10.4,-4.12,3.02
33.015015,9.34,0.31,1.65
33.086,6.59,-0.78,0.16
33.156982,8.51,-0.59,-0.47
33.227966,8.51,-0.43,0.12
33.29901,8.9,0,-0.78
33.369995,10.55,-0.31,-0.12
33.44098,11.92,2.51,-3.69
33.511963,12.43,-5.37,4.35
33.583008,7.34,-1.45,2.55
33.65399,8.55,-2.47,1.61
33.724976,8.39,0,1.26
33.79596,8.12,-1.02,0.43
33.867004,8.67,0,0.86
33.93799,9.53,0.12,1.29
34.008972,8.75,0.39,-1.61
34.079956,8.59,1.02,-0.2
34.151,11.45,-0.75,2.43
34.221985,10.71,-3.41,3.57
34.29297,9.02,3.96,1.96
34.364014,7.65,-1.84,1.61
34.434998,7.53,-0.51,-0.16
34.50598,8.94,-0.39,0.31
34.576965,8.51,-0.12,-0.39
34.64801,9.41,1.26,-1.65
34.718994,10.2,-0.98,-0.98
34.789978,11.49,2.28,2.24
34.860962,12.79,-6.51,4.59
34.932007,7.81,-0.82,3.49
35.00299,8.32,-2.63,2.51
35.073975,7.73,0.82,1.33
35.14496,8.47,-1.69,0.08
35.216003,8.36,0.27,0.67
35.286987,9.57,-0.75,0.71
35.35797,9.89,1.41,0.43
35.428955,10.43,-0.16,0.67
35.5,10.2,-2.24,4.63
35.570984,9.65,-1.53,2.86
35.641968,9.77,3.77,2.63
35.713013,8.04,-0.63,1.45
35.783997,7.49,0.39,-0.55
35.85498,7.96,-0.71,0.04
35.925964,8.32,-0.08,-0.27
35.99701,10.4,0.82,-0.63
36.067993,11.14,0.12,-2.39
36.138977,13.57,-1.61,2.82
36.20996,6.83,0.63,1.96
36.281006,10.43,-3.88,2.59
36.35199,8.9,-0.86,-0.12
36.422974,8.04,-0.78,0.98
36.493958,8.28,0.55,0.12
36.565002,8.2,-0.51,-0.2
36.635986,9.61,-0.51,-0.39
36.70697,9.96,-0.31,0.24
36.778015,11.26,0.16,-0.98
36.849,10.47,0.39,9.96
36.919983,10.83,-3.14,0.67
36.990967,8.28,1.22,0.12
37.06201,7.18,-1.49,1.49
37.132996,8.59,-0.82,-0.39
37.20398,8.75,-0.67,-0.04
37.274963,9.49,0.47,0.31
37.34601,9.81,-1.61,0.08
37.416992,12.67,1.49,-0.51
37.487976,10.2,-5.45,1.26
37.55896,9.1,-1.45,3.22
37.630005,8.75,-1.53,2.12
37.70099,7.92,0.9,0.24
37.771973,8.2,-0.82,-0.08
37.842957,8.51,-0.31,1.84
37.914,9.53,-0.04,0.98
37.984985,8.43,0.9,-0.51
38.05597,10.32,-1.29,-0.39
38.127014,11.65,-0.71,4.51
38.197998,9.69,-1.45,6.04
38.268982,10.55,2.16,3.57
38.339966,8.51,-0.71,2.67
38.41101,7.73,-0.67,-0.9
38.481995,8.04,-0.27,0.31
38.55298,8.32,0.16,-0.35
38.623962,9.77,0.12,-0.75
38.695007,11.81,0.51,-1.65
38.76599,14.04,-2.94,3.14
38.836975,6.12,1.29,1.57
38.90796,10.12,-3.26,1.53
38.979004,9.22,-0.08,0.86
39.049988,8.16,-0.94,1.1
39.12097,8.51,-0.12,0.78
39.191956,7.73,0.2,1.26
39.263,10,-0.2,0.16
39.333984,9.49,0.08,1.06
39.40497,11.45,0.51,0.31
39.476013,12.24,-0.43,3.77
39.546997,10.98,-3.37,3.41
39.61798,8.2,-0.2,0.47
39.688965,7.26,-0.2,0.82
39.76001,8.16,0,-0.82
39.830994,8.32,-0.9,-0.78
39.901978,8.98,-1.33,-1.57
39.97296,10.51,0.04,-1.45
40.044006,13.06,0.24,-0.94
40.11499,12.43,-7.3,4.79
40.185974,10.4,-0.82,2.71
40.256958,8.79,0.63,1.22
40.328003,7.41,-0.63,1.84
40.398987,8.24,-2.08,0.51
40.46997,8.32,0.39,0.12
40.541016,8.87,0.82,0.94
40.612,9.96,-0.35,0.51
40.682983,9.53,0.47,0.43
40.753967,12,0.2,0.59
40.825012,10.16,2,5.02
40.895996,11.1,-2.35,1.1
40.96698,9.92,-0.27,1.41
41.037964,6.28,-0.63,0.43
41.10901,8.63,0.24,-1.41
41.179993,8.2,-0.27,-0.55
41.250977,9.18,-0.55,-1.69
41.32196,10,-0.47,-0.78
41.393005,13.69,-0.67,-1.26
41.46399,11.85,-6.75,6.47
41.534973,9.65,-2.28,2.82
41.605957,9.38,-0.2,0.82
41.677002,7.73,-0.08,0.59
41.747986,7.92,-0.71,-0.08
41.81897,8.59,0.35,1.06
41.890015,8.71,0,-0.63
41.961,9.73,0.59,0.31
42.031982,10.59,-0.24,0.24
42.102966,12.4,-2.43,3.18
42.17401,10.87,-3.92,4.94
42.244995,10.08,0.71,0.04
42.31598,7.85,-0.16,1.22
42.386963,8.12,-0.55,-1.53
42.458008,8.63,-0.78,-0.08
42.52899,8.9,-0.51,-0.98
42.599976,9.61,-0.59,-0.9
42.67096,11.22,-0.39,-2.43
42.742004,13.45,-0.98,0.86
42.81299,8.51,-3.14,2.67
42.883972,9.34,-3.88,2.08
42.954956,7.92,-1.37,2.28
43.026,7.45,-0.47,1.57
43.096985,8.08,-0.55,0.27
43.16797,7.61,0.35,-0.75
43.239014,9.77,-0.71,-0.08
43.309998,9.85,-0.12,0.67
43.38098,12.16,-0.9,-1.37
43.451965,12,-0.12,5.22
43.52301,10.51,-5.77,3.22
43.593994,8.59,-1.02,1.1
43.664978,7.22,-2.04,0.51
43.735962,8.51,-0.35,0.35
43.807007,8.9,-0.16,-0.27
43.87799,8.94,0.08,-0.82
43.948975,10.2,-1.53,0
44.01996,13.3,2.79,-2.39
44.091003,13.06,-6.98,5.14
44.161987,6.59,-0.78,2.79
44.23297,9.18,-3.14,1.41
44.303955,8.63,0.43,1.96
44.375,7.96,-1.65,0.24
44.445984,8.24,-0.43,1.26
44.516968,9.45,-0.55,0.63
44.588013,10,0.67,-0.51
44.658997,10.63,-0.39,0.31
44.72998,11.73,-1.37,1.49
44.800964,10.67,-5.06,4.08
44.87201,9.85,4.35,2.31
44.942993,7.45,-0.27,2
45.013977,7.61,-1.1,-0.39
45.08496,8.32,-0.35,-0.78
45.156006,8.16,-0.39,-0.82
45.22699,9.77,-0.16,0.27
45.297974,11.1,0.16,-1.61
45.368958,14.63,-1.18,2
45.440002,5.81,0.43,3.02
45.510986,10.47,-4.63,2.51
45.58197,8.51,-1.61,0.31
45.653015,7.69,-0.78,1.26
45.724,8.36,0.2,0.47
45.794983,9.3,0.43,-0.2
45.865967,9.53,-0.63,-0.67
45.93701,9.26,0.43,0.94
46.007996,11.77,0.43,-2.55
46.07898,11.3,-0.9,5.73
46.149963,9.96,-4.51,4.12
46.22101,10.79,-1.02,0.51
46.291992,6.86,0.16,0.78
46.362976,8.43,-0.55,-0.47
46.43396,8.94,-0.51,-0.67
46.505005,8.94,0.51,-1.02
46.57599,10.36,-1.61,-0.39
46.646973,12.24,2.51,-1.92
46.717957,14.83,-6.86,5.41
46.789,7.49,-0.16,2.9
46.859985,7.85,-2.79,1.53
46.93097,8.04,0.04,0.12
47.002014,8.67,-1.41,-0.24
47.072998,8.47,0.55,0.59
47.143982,8.87,-0.2,0.86
47.214966,10.67,-0.04,-2.31
47.28601,10.47,-0.24,0.39
47.356995,11.49,-1.61,-0.27
47.42798,10.24,-0.47,5.37
47.498962,11.34,2.16,0
47.570007,7.49,0.75,0.24
47.64099,7.41,-2.31,0.08
47.711975,8.51,-0.08,0.12
47.78296,8.24,-0.12,-0.47
47.854004,9.96,0.27,-1.26
47.924988,11.34,-1.14,-1.02
47.99597,12.51,0.47,3.33
48.066956,7.77,-1.73,1.33
48.138,11.65,-4.55,1.22
48.208984,8.32,-1.29,-0.27
48.27997,8.36,-1.49,0.55
48.351013,8.55,0.08,0.27
48.421997,8.16,-0.24,0.12
48.49298,10.16,-0.94,-1.1
48.563965,10.16,0.59,1.22
48.63501,13.02,-1.45,-1.88
48.705994,10.24,-0.9,4.79
48.776978,12.4,-4.94,1.53
48.84796,8.75,-1.37,1.57
48.919006,6.94,-0.63,-0.24
48.98999,8.67,-0.47,0.04
49.060974,8.2,0.31,-0.86
49.131958,9.69,0.31,-1.1
49.203003,10.28,-2.31,-0.35
49.273987,13.93,1.22,0.24
49.34497,9.18,-4.04,0.47
49.416016,9.26,-2.51,3.45
49.487,8,-2.08,2.86
49.557983,7.92,1.49,0.35
49.628967,8.55,-1.8,0.71
49.700012,8.28,-0.04,0.35
49.770996,9.3,-1.53,1.57
49.84198,8.75,1.92,-0.98
49.912964,12.36,-1.37,-1.96
49.98401,12.36,0.31,6.16
50.054993,9.49,-9.3,1.53
50.125977,9.41,-2.71,1.37
50.19696,6.9,-1.73,0.63
50.268005,8.59,0.2,-1.18
50.33899,8.43,0.55,-0.12
50.409973,9.18,0.16,-0.59
50.480957,9.85,-0.9,-1.53
50.552002,13.14,5.65,-2.39
50.622986,14.47,-5.26,4.86
50.69397,6.79,-0.51,2.12
50.765015,9.14,-3.37,1.22
50.836,7.53,-0.16,1.77
50.906982,8.12,-2.59,-0.35
50.977966,8.9,-0.31,0.86
51.04901,9.96,-0.51,-1.18
51.119995,8.87,0.31,1.57
51.19098,11.3,-0.63,-1.8
51.261963,11.53,-2.98,6.94
51.333008,11.06,-5.14,3.53
51.40399,8,1.02,0.86
51.474976,6.28,-1.84,1.1
51.54596,9.14,0.16,-0.39
51.617004,8.32,-0.12,-1.14
51.68799,8.87,-0.27,-0.78
51.758972,10.08,-1.06,-0.35
51.829956,13.85,1.1,-0.27
51.901,12.51,-5.92,3.14
51.971985,7.41,-0.67,1.96
52.04297,8.55,-3.65,2.2
52.114014,7.88,1.73,0.82
52.184998,8.71,-1.69,0.71
52.25598,8.24,0.67,0.63
52.326965,8.59,0.04,2.04
52.39801,9.34,1.33,-0.16
52.468994,10.79,-0.78,1.26
52.539978,12.79,-2.47,1.77
52.610962,9.22,-0.2,5.06
52.682007,10.67,0.16,-0.63
52.75299,7.41,1.8,1.26
52.823975,7.69,-1.06,-0.12
52.89496,8.24,0.59,-0.31
52.966003,8.59,-0.63,-0.94
53.036987,9.49,0.47,-1.61
53.10797,10.32,-0.75,-1.37
53.178955,14.08,-1.29,2.24
53.25,8.28,0.12,1.84
53.320984,9.96,-4.47,2.86
53.391968,8.32,-1.29,0.47
53.463013,7.3,-0.31,1.29
53.533997,8.16,0,-0.59
53.60498,8.2,-0.43,0.63
53.675964,10.04,-1.22,-1.22
53.74701,9.34,1.53,2.55
53.817993,12.71,-0.47,-1.45
53.888977,8.9,-1.57,3.61
53.95996,12.47,-0.98,3.49
54.031006,7.73,-0.16,0.86
54.10199,6.16,-2.9,0.16
54.172974,8.71,-0.47,-0.31
54.243958,8.39,0.24,-0.35
54.315002,9.69,0.08,-0.27
54.385986,10.43,-1.22,-0.63
54.45697,13.61,0.63,0.47
54.528015,9.65,-7.57,5.37
54.599,9.89,-3.33,2.63
54.669983,8.24,-1.1,1.57
54.740967,7.73,0.08,1.06
54.81201,8.04,-1.61,0.08
54.882996,8.28,-0.55,1.1
54.95398,9.57,-0.51,0.2
55.024963,8.63,0.9,2.55
55.09601,13.89,-0.82,-1.29
55.166992,9.61,-0.51,6.24
55.237976,10.43,-0.59,0.63
55.30896,8.47,-2.47,1.53
55.380005,6.94,-1.41,0
55.45099,8.9,0.16,-0.51
55.521973,7.69,0,-0.63
55.592957,10.16,-0.08,-1.69
55.664,11.18,-0.24,-1.41
55.734985,13.49,-0.71,2.86
55.80597,8.51,-4.51,2.59
55.877014,10.63,-4.39,1.92
55.947998,7.57,-1.26,1.1
56.018982,7.73,-0.98,1.69
56.089966,8.2,-0.51,-0.16
56.16101,9.26,0.27,0.55
56.231995,9.85,-1.22,-0.67
56.30298,8.75,0.67,1.77
56.373962,12.59,-1.57,-1.73
56.445007,12.2,-0.16,7.14
56.51599,9.92,-3.41,1.37
56.586975,9.73,-0.67,0.94
56.65796,6.83,-1.65,0.75
56.729004,8.28,0.59,-1.22
56.799988,8.59,-0.47,-0.98
56.87097,9.06,-0.12,-1.37
56.941956,10.24,-0.82,-1.69
57.013,12.43,2.12,-3.69
57.083984,12.87,-3.02,5.26
57.15497,4.75,0.98,2.24
57.226013,9.34,-3.22,1.92
57.296997,8.71,-1.14,0.82
57.36798,7.77,-1.18,0.75
57.438965,7.61,-0.43,-0.08
57.51001,9.22,-0.78,0.2
57.580994,11.26,-1.37,-1.14
57.651978,9.61,1.84,2
57.72296,12.71,-0.24,0.86
57.794006,10.32,-0.43,2.55
57.86499,10.16,-1.1,1.53
57.935974,8.55,-3.06,0.86
58.006958,7.22,0.71,0.39
58.078003,8.2,-0.59,-1.14
58.148987,8.24,-0.27,-0.43
58.21997,8.24,-0.24,-1.88
58.291016,9.89,-0.39,-1.96
58.362,14.08,-2.51,0.12
58.432983,8.9,-3.84,2.16
58.503967,9.89,-1.22,2.2
58.575012,9.69,-3.26,2.28
58.645996,7.34,0.43,1.77
58.71698,7.61,-1.29,0.12
58.787964,8.24,-0.51,-0.04
58.85901,8.9,-1.1,-0.04
58.929993,11.41,-1.29,0.63
59.000977,12.47,-1.06,-0.2
59.07196,10.08,-1.73,4.86
59.143005,10.04,-4.16,-0.2
59.21399,9.92,-0.16,1.37
59.284973,6.63,-0.43,1.22
59.355957,8.32,-0.24,-0.55
59.427002,8.2,-0.67,-0.35
59.497986,9.02,-0.51,-1.84
59.56897,10.16,-1.06,-1.73
59.640015,14,-0.75,-2.79
59.711,14.08,-6.83,6.04
59.781982,8.16,-0.31,2.04
59.852966,8.32,-2.51,1.41
59.92401,7.06,1.33,0.67
59.994995,8.32,-1.41,-0.2
60.06598,7.57,0.24,1.37
60.136963,8.94,-0.12,-0.98
60.208008,10.2,0.59,2.47
60.27899,11.77,0.2,-1.02
60.349976,11.49,-0.47,6.24
60.42096,10.55,-3.06,0.39
60.492004,9.45,-0.04,0.63
60.56299,6.43,-1.06,1.06
60.633972,8.12,-0.55,-1.18
60.704956,8.71,-0.71,-0.67
60.776,9.22,0.43,-1.88
60.846985,9.45,-0.24,-1.06
60.91797,13.73,0.86,-4.59
60.989014,12.94,-5.69,6.51
61.059998,8.32,-2.9,1.33
61.13098,9.85,-1.45,2.71
61.201965,7.41,0.67,0.63
61.27301,7.65,-1.37,-0.39
61.343994,8.63,0.04,0.43
61.414978,9.41,0.27,0.67
61.485962,9.73,-0.31,0.2
61.557007,12.16,-0.31,-0.67
61.62799,11.18,-0.12,5.61
61.698975,11.02,-4.12,1.18
61.76996,9.69,1.88,1.29
61.841003,6.51,-0.9,1.69
61.911987,8.43,0.12,-1.1
61.98297,8.2,-0.59,0.04
62.053955,9.06,0.04,-1.33
62.125,10.43,-1.14,-1.77
62.195984,13.42,0.75,-2.86
62.266968,11.49,-1.77,4.24
62.338013,5.3,-0.94,0.9
62.408997,9.61,-3.18,1.69
62.47998,8.83,0.9,0.04
62.550964,8.12,-0.47,0.27
62.62201,7.57,0.55,-0.04
62.692993,8.36,-0.75,0
62.763977,10.16,0.98,-0.71
62.83496,10.83,-0.08,-0.27
62.906006,11.81,-1.53,5.84
62.97699,9.57,-5.45,4.35
63.047974,8.9,5.26,2.75
63.118958,6.28,-1.1,2.28
63.190002,8.32,-2.24,2.04
63.260986,8.71,-0.71,-0.2
63.33197,8.32,0.86,-0.04
63.403015,10.32,-0.47,-1.92
63.474,10.4,-0.16,-0.24
63.544983,12.75,2.47,-1.18
63.615967,10.28,-5.26,5.53
63.68701,9.26,-2.86,0.78
63.757996,8.28,-1.41,0.9
63.82898,7.65,-0.04,0.98
63.899963,8.71,-0.98,0.08
63.97101,8.75,0.04,0.51
64.04199,9.22,0.04,-1.65
64.112976,9.85,0.04,1.06
64.18396,11.61,-0.04,-2.86
64.255005,10.43,-5.49,4.94
64.32599,12.16,-3.1,4.59
64.39697,9.89,-0.35,1.57
64.46796,6.39,0.59,0.63
64.539,8.24,-0.24,-0.86
64.609985,8.43,-0.55,-1.02
64.68097,9.3,-0.35,-0.86
64.752014,10.87,-0.94,-1.8
64.823,12.98,0.55,-1.92
64.89398,13.69,-6.2,5.14
64.964966,8.28,-2.63,2.31
65.03601,8.75,-2.43,0.55
65.106995,8.24,0.82,0.82
65.17798,8.39,-0.94,0.04
65.24896,8.04,-0.08,-0.16
65.32001,9.96,0.24,-0.55
65.39099,10.63,-0.43,-1.1
65.461975,10.36,0.51,-0.24
65.53296,12.36,-2.63,3.73
65.604004,10.4,-7.49,2.08
65.67499,10.2,2.67,0.59
65.74597,7.41,-0.27,1.1
65.816956,7.41,-2.24,-0.47
65.888,9.06,-0.59,0.12
65.958984,8.47,-0.2,-1.02
66.02997,9.81,0.47,-1.06
66.10101,10.79,-0.75,-1.06
66.172,13.38,0.31,-0.2
66.24298,9.18,-3.77,2.75
66.313965,10.12,-4.24,2.71
66.38501,8.55,-0.9,0.67
66.45599,7.14,0.12,1.29
66.52698,8.28,-0.39,0.12
66.59796,8.75,-0.31,0.71
66.66901,9.57,-0.12,-0.04
66.73999,9.89,-0.04,-0.08
66.810974,9.38,-0.08,0.2
66.88196,11.53,-1.88,-0.08
66.953,12.36,-1.84,4.71
67.02399,9.26,-3.33,3.88
67.09497,8,-3.3,0.98
67.166016,8.04,-1.73,1.22
67.237,9.14,-2.08,2.04
67.30798,9.02,-2.43,1.57
67.37897,8.94,-2.2,1.41
67.45001,9.1,-2.16,0.82
67.520996,8.79,-1.41,0.86
67.59198,9.57,-2.08,0.9
67.662964,9.41,-1.49,1.73
67.73401,9.69,-0.04,2.86
67.80499,8.87,-1.37,0.63
67.87598,9.18,-0.9,1.53
67.94696,9.22,-1.26,1.65
68.018005,9.1,-1.06,1.22
68.08899,9.45,-0.82,1.45
68.15997,9.3,-0.9,1.45
68.23096,9.41,-1.14,1.29
68.302,9.53,-0.78,1.14
68.372986,9.41,-0.9,0.94
68.44397,9.45,-0.9,0.98
68.515015,9.45,-1.1,1.1
68.586,9.49,-0.86,1.1
68.65698,9.45,-0.78,1.02
68.72797,9.49,-0.9,1.1
68.79901,9.49,-0.94,1.02
