NAME:,walk arbel.csv,,
EXPERIMENT TIME:,18/06/2023 9:36,,
ACTIVITY TYPE:,Walking,,
COUNT OF ACTUAL STEPS:,104,,
,,,
Time [sec],ACC X,ACC Y,ACC Z
0,0.78,-0.16,-8.63
0.11000061,2.28,-0.51,-9.1
0.20999908,2,-0.78,-11.65
0.30999756,1.14,-0.55,-13.34
0.40999603,0.16,-0.94,-8.79
0.51000214,0.75,-0.47,-10.43
0.6199951,1.29,-1.1,-8.43
0.7200012,-1.49,-0.9,-9.73
0.8199997,1.57,-1.1,-10.47
0.91999817,-0.55,-0.78,-12.04
1.0199966,-0.86,-2.31,-13.45
1.1299973,0.39,0.24,-9.3
1.2299957,0.2,-0.82,-8.98
1.3300018,1.96,-0.27,-9.1
1.4300003,2.16,0.2,-10.12
1.5299988,1.1,0.35,-12.08
1.6399994,-2.04,-0.24,-12.79
1.7399979,0.61,-1.1,-9.02
1.8399963,0.49,0.2,-9.14
1.9400024,1.88,-0.31,-9.1
2.040001,0.08,0.39,-9.22
2.1500015,1.61,-0.78,-12.08
2.25,2.31,-1.26,-13.77
2.3499985,0,0.24,-10.51
2.449997,0.35,-1.06,-9.92
2.5499954,0.71,0.12,-9.38
2.659996,0.12,-0.04,-8.98
2.7600021,0.94,-0.04,-10.2
2.8600006,0.75,-0.86,-12.59
2.959999,0.04,1.57,-11.73
3.0599976,0.02,-0.75,-9.49
3.1699982,-1.29,0.12,-8.71
3.2699966,0.9,-0.98,-8.63
3.369995,1.61,-1.06,-10.2
3.4700012,0.82,-1.06,-12
3.5699997,-1.02,0.2,-13.42
3.6800003,2.55,0.82,-7.61
3.7799988,0.04,-0.9,-10.2
3.8799973,0.04,0.35,-8.83
3.9799957,1.06,-0.47,-9.02
4.080002,1.57,-1.1,-12.08
4.1900024,-2.63,-1.77,-12.83
4.290001,0.71,0.78,-9.73
4.3899994,0.16,0.51,-10.63
4.489998,0.43,-0.47,-8.43
4.5899963,-0.75,-0.78,-8.79
4.699997,1.92,-0.63,-10.12
4.7999954,-2.98,-2.47,-13.65
4.9000015,0.33,-1.02,-12.79
5,0.16,-0.12,-8.75
5.0999985,0.27,0,-8.87
5.209999,0.78,-0.55,-9.41
5.3099976,-1.1,-0.16,-10.71
5.409996,2.35,-0.2,-12.43
5.510002,0.43,1.06,-13.22
5.6100006,0.29,-1.18,-9.69
5.720001,-0.63,0.9,-8.87
5.8199997,0.27,-0.9,-9.73
5.919998,-0.9,-1.02,-9.53
6.0199966,0.08,-0.16,-12.08
6.119995,-2.59,-2.55,-14.79
6.2299957,0.26,0.35,-6.71
6.330002,0.04,-0.27,-9.38
6.4300003,0.43,-0.24,-8.71
6.529999,0.86,-0.08,-8.98
6.6299973,-0.39,-1.1,-12.28
6.739998,-2.08,-0.9,-14.36
6.8399963,0.51,0.12,-7.57
6.9400024,0.12,0.31,-9.77
7.040001,0.27,-0.35,-9.1
7.1399994,0.86,-0.59,-9.77
7.25,0.24,0.31,-10.98
7.3499985,0.78,-0.86,-14.59
7.449997,0.67,1.26,-7.1
7.5499954,0.24,-0.78,-10.75
7.6500015,0.47,0.67,-8.12
7.760002,-0.86,-0.2,-9.41
7.8600006,0.9,-0.12,-12.08
7.959999,3.26,-0.82,-12.55
8.059998,1.92,1.65,-8.94
8.159996,0.27,0,-10.36
8.269997,0.82,-0.04,-9.49
8.369995,-0.24,-0.08,-8.9
8.470001,1.49,-0.35,-11.3
8.57,3.65,-1.53,-13.14
8.669998,0.92,-0.04,-10.36
8.779999,0.59,-0.71,-10.36
8.879997,0.08,0.31,-7.65
8.979996,0.71,0.2,-9.34
9.080002,1.26,-0.9,-11.89
9.18,2.04,-0.16,-12.28
9.290001,0.88,1.8,-10.47
9.389999,0.67,-0.39,-10.59
9.489998,0.04,0.08,-8.71
9.589996,0.51,-0.63,-9.34
9.690002,1.41,-0.86,-10.24
9.799995,1.45,-2.16,-13.45
9.900002,0.61,-0.04,-12.24
10,0.31,-0.16,-8.2
10.099998,0.35,0.31,-8.87
10.199997,0.04,0.08,-8.98
10.309998,1.61,-0.39,-10.32
10.409996,0.71,-0.04,-11.34
10.510002,2.12,0.43,-12.83
10.610001,0.8,-0.67,-9.22
10.709999,0.08,0.35,-9.53
10.82,0.16,-0.2,-9.34
10.919998,0.39,-0.67,-9.14
11.019997,0.47,-0.75,-10.71
11.119995,2.04,-1.29,-16.08
11.220001,0.98,2.35,-6.55
11.330002,0.55,0.51,-9.73
11.43,0.67,0,-8.87
11.529999,-0.9,0.16,-9.61
11.629997,1.57,0.55,-12.2
11.729996,-2.08,-0.2,-13.22
11.839996,0.16,0.04,-9.14
11.940002,-0.71,0.51,-9.49
12.040001,0.71,0,-9.18
12.139999,0.98,-0.98,-9.92
12.239998,-0.9,-0.08,-11.38
12.349998,0.71,1.29,-13.85
12.449997,0.98,1.45,-8.28
12.549995,0.63,0.31,-9.57
12.650002,0,0.51,-8.75
12.75,0.47,-0.39,-9.89
12.860001,1.53,0.08,-12.79
12.959999,-1.18,-0.47,-12.2
13.059998,2.59,-0.39,-8.87
13.159996,0.75,-0.16,-9.1
13.260002,-0.51,-0.43,-9.65
13.369995,1.02,-0.59,-9.81
13.470001,0.16,-1.06,-12
13.57,1.69,0.63,-12.63
13.669998,0.1,0.98,-9.3
13.769997,0.04,0.04,-8.55
13.879997,-0.24,0.35,-8.67
13.979996,-1.06,-0.31,-9.57
14.080002,-1.18,-0.12,-12.4
14.18,0.47,-0.67,-13.26
14.279999,0.96,0,-8.55
14.389999,0.35,0,-9.41
14.489998,-0.16,-0.67,-9.57
14.589996,0.94,-0.75,-9.34
14.690002,-0.12,-0.43,-11.65
14.790001,3.14,-0.24,-13.65
14.900002,0.98,0.67,-7.14
15,0.59,-1.33,-10.63
15.099998,0.31,0.16,-7.92
15.199997,0.75,0.55,-9.53
15.299995,-0.71,-0.63,-12.2
15.409996,-2,0.04,-13.53
15.510002,0.61,0.98,-9.22
15.610001,0.31,-0.94,-10.71
15.709999,-0.47,0,-9.18
15.809998,0.75,-0.86,-9.1
15.919998,-0.78,-0.82,-11.22
16.019997,-0.04,-1.92,-12.94
16.119995,0.63,1.41,-7.57
16.220001,0.14,-1.18,-11.22
16.32,0.39,0,-8
16.43,-0.59,0.04,-9.73
16.529999,-0.86,0,-11.38
16.629997,2.59,-2.04,-13.45
16.729996,0.45,1.45,-9.41
16.830002,0.14,-1.06,-10
16.940002,0.16,-0.12,-8.59
17.04,0.31,-0.67,-9.61
17.14,-0.71,0,-10.63
17.239998,2.08,-3.22,-13.85
17.339996,0.51,0,-9.69
17.449997,0.77,-0.08,-10.67
17.549995,0.71,0.51,-8.36
17.650002,0.04,0.08,-9.22
17.75,0.43,0.12,-10.55
17.849998,1.53,0.59,-12.71
17.96,0.31,2,-11.1
18.059998,1.53,-0.98,-9.18
18.159996,0.24,0.55,-8.87
18.260002,0.27,-0.08,-9.65
18.36,1.45,-1.1,-10.87
18.470001,0.39,-1.1,-12.55
18.57,1.69,0.27,-11.81
18.669998,0,0.04,-10.51
18.769997,0.22,0.67,-7.73
18.869995,0,-0.16,-9.41
18.979996,0.24,0.55,-9.26
19.080002,0.98,0,-12.63
19.18,0.33,1.29,-11.26
19.279999,1.92,-0.51,-9.22
19.379997,0.27,-0.12,-9.1
19.489998,0.43,-0.63,-9.69
19.589996,-0.94,-1.18,-10.47
19.690002,-0.63,-1.33,-12.4
19.79,0.33,-0.67,-12.12
19.89,0.04,-0.75,-9.02
20,0.78,0.51,-8
20.099998,-0.51,-0.24,-9.38
20.199997,-0.75,-0.35,-10.87
20.299995,-0.55,0,-13.14
20.400002,0.49,1.8,-11.06
20.510002,0.55,-0.12,-9.92
20.61,1.49,-0.63,-8.12
20.71,0.35,-0.59,-9.77
20.809998,-1.49,-0.78,-11.1
20.909996,-0.94,-1.96,-12.55
21.019997,0.96,-0.08,-11.06
21.119995,0.77,-0.9,-11.61
21.220001,0.78,-0.12,-7.92
21.32,-0.39,-0.55,-9.34
21.419998,0.16,-0.08,-10.16
21.529999,1.22,-0.59,-13.02
21.629997,0.31,1.84,-10.83
21.729996,0.37,-0.71,-10.2
21.830002,-0.12,0.2,-8.2
21.93,0.04,-0.78,-9.69
22.04,-1.29,-0.55,-11.06
22.14,-0.2,-0.67,-12.51
22.239998,0.75,-0.2,-12.63
22.339996,2.9,-0.39,-10.04
22.440002,0.51,0.16,-7.81
22.549995,0.08,0.04,-9.3
22.650002,1.22,-0.2,-10.55
22.75,-0.39,0.27,-12.04
22.849998,0.71,1.49,-11.96
22.949997,2.04,-0.98,-8.16
23.059998,-0.47,0,-9.45
23.159996,0.51,-0.43,-9.85
23.260002,1.18,-0.9,-9.53
23.36,1.22,-0.98,-11.85
23.46,1.14,-0.08,-14
23.57,0.06,-0.47,-8.24
23.669998,0.16,-0.08,-10
23.769997,0,-0.12,-8.67
23.869995,-1.53,-0.27,-9.45
23.970001,-1.1,-0.86,-11.73
24.080002,2.82,-0.94,-14.16
24.18,0.84,-1.1,-7.81
24.279999,-0.31,-0.82,-10.55
24.379997,0.82,-0.24,-9.14
24.479996,1.37,-0.98,-9.65
24.589996,0.67,-0.67,-11.18
24.690002,1.96,-1.45,-14.59
24.79,0.43,0.86,-7.53
24.89,0.2,-0.39,-9.89
24.989998,0.47,0.2,-8.87
25.099998,1.14,-0.12,-9.18
25.199997,1.77,-0.82,-12.4
25.299995,2.16,-1.18,-13.18
25.400002,0.92,0.04,-8.67
25.5,1.49,0.12,-9.69
25.61,0.82,-0.67,-9.18
25.71,2.04,-1.1,-9.57
25.809998,0.59,-1.57,-12.24
25.909996,0.39,0.59,-13.06
26.010002,0.94,0.08,-7.88
26.119995,0.08,-0.39,-8.75
26.220001,0.24,0.39,-9.81
26.32,1.49,-0.12,-9.77
26.419998,-0.55,0.04,-12.12
26.519997,-1.45,-0.24,-12.55
26.629997,2.2,-0.63,-9.14
26.729996,1.02,0,-8.51
26.830002,0.82,-0.86,-9.85
26.93,1.69,-0.63,-10.12
27.029999,1.26,-1.18,-11.89
27.14,1.45,-0.94,-14
27.239998,0.82,1.53,-8.36
27.339996,0.47,-0.31,-9.81
27.440002,0.39,0.24,-8.32
27.54,1.22,-0.24,-9.73
27.650002,-0.04,0.39,-12.28
27.75,0.82,0.04,-11.57
27.849998,0.73,-0.55,-9.57
27.949997,0.16,-0.24,-8.04
28.049995,0.24,-0.82,-9.81
28.159996,1.22,-0.67,-10.04
28.260002,0.55,-1.57,-11.96
28.36,0.51,-1.53,-12.98
28.46,0.51,0.08,-10.28
28.559998,0.43,-0.35,-8.32
28.669998,0.55,-0.35,-8.83
28.769997,1.22,-0.98,-11.22
28.869995,0.75,-0.27,-12.16
28.970001,0.51,-0.16,-11.57
29.07,0.86,-0.35,-10.16
29.18,0.24,-0.67,-7.88
29.279999,0.55,-0.94,-9.53
29.379997,1.57,-1.02,-10.43
29.479996,1.22,-1.69,-12.2
29.580002,0.14,-0.82,-11.69
29.690002,0.59,-0.98,-10.12
29.79,0.12,-0.27,-8
29.89,0.67,-0.47,-9.69
29.989998,2.04,-1.06,-10.43
30.089996,1.41,-0.59,-12.87
30.199997,0,-0.51,-11.22
30.299995,0.16,-0.16,-8.47
30.400002,1.65,-1.69,-9.02
30.5,0.35,-1.69,-9.45
30.599998,1.33,-1.45,-9.77
30.71,2.12,-1.33,-12
30.809998,0.94,-0.75,-8.43
30.909996,0.75,-1.53,-9.61
31.010002,0.22,-1.45,-9.89
31.11,0.04,-0.82,-10.16
31.220001,0.2,-0.94,-10.24
31.32,-1.02,-2.71,-11.14
31.419998,0.51,0.9,-12.04
31.519997,0.45,0.75,-8.51
31.619995,0,0.16,-9.61
31.729996,0.71,-0.86,-9.34
31.830002,0.78,-0.59,-10.16
31.93,2.28,-2.08,-12.32
32.03,0.16,-1.73,-12
32.129997,0.41,0,-7.26
32.239998,0.24,0.08,-11.14
32.339996,0.59,-0.51,-9.92
32.440002,1.06,-0.31,-9.38
32.54,1.1,-1.06,-11.34
32.64,2.2,-1.61,-12.47
32.75,0,-1.29,-8.36
32.85,0.35,-1.1,-10.55
32.949997,0.75,-1.18,-9.38
33.049995,0.71,-1.18,-8.75
33.15,1.33,-1.53,-10.98
33.260002,3.49,-2.24,-13.38
33.36,0.37,0.35,-7.1
33.46,1.06,-1.57,-11.77
33.559998,0.51,-0.47,-8.75
33.659996,0.04,-0.27,-8.87
33.769997,1.61,-1.26,-11.34
33.869995,0.98,-0.16,-11.92
33.97,0,-0.39,-12.36
34.07,0.49,-0.39,-9.14
34.17,0.39,-1.02,-8.63
34.28,0.27,-1.06,-9.73
34.379997,1.77,-1.02,-9.77
34.479996,0.98,-1.41,-12.04
34.58,0.08,-0.31,-12.63
34.68,0.73,0.51,-9.77
34.79,0.04,-0.08,-7.92
34.89,0.43,0,-9.22
34.989998,1.73,-0.71,-9.57
35.089996,0.75,-0.16,-11.26
35.190002,3.26,-1.45,-14.2
35.299995,2.39,0.24,-7.57
35.4,0.12,-0.51,-11.61
35.5,0.82,-0.67,-9.14
35.6,0.9,-1.02,-9.06
35.699997,-0.67,-0.67,-10.2
35.809998,3.33,-2.51,-14.55
35.909996,0.9,0.39,-7.34
36.010002,0.75,-1.26,-12.67
36.11,0.12,-0.04,-7.45
36.21,-0.98,-0.16,-9.65
36.32,0.86,-0.78,-10.83
36.42,2.16,-0.94,-12.2
36.519997,0.63,1.02,-11.96
36.619995,0.86,-0.86,-9.49
36.72,-0.12,-0.82,-8.12
36.83,0,-0.82,-9.53
36.93,1.77,-0.94,-10.83
37.03,0.55,-2.04,-12.55
37.129997,0.9,0.08,-13.06
37.229996,0.73,-0.82,-10.04
37.339996,0.02,0.08,-8.12
37.440002,0.12,-0.39,-9.3
37.54,0.55,0.04,-10.16
37.64,0.63,-0.78,-11.73
37.739998,0.24,0.12,-13.14
37.85,0.2,-1.26,-8.47
37.949997,0.24,-0.24,-9.14
38.049995,0.08,-0.71,-9.38
38.15,0.86,-0.67,-9.38
38.25,0.71,-1.06,-12
38.36,1.92,-1.49,-15.65
38.46,0.67,0.63,-7.26
38.559998,0,-0.59,-10.2
38.659996,0.63,-0.04,-9.14
38.760002,1.33,-0.04,-9.41
38.869995,0.39,-0.16,-11.53
38.97,1.57,-0.67,-12.36
39.07,0.57,-0.27,-9.92
39.17,0.9,-0.9,-10.28
39.269997,0.31,-0.86,-8.24
39.379997,0.47,-0.75,-9.1
39.479996,1.02,-0.71,-10.55
39.58,3.3,-2.98,-14.28
39.68,0.37,-0.63,-10.16
39.78,0.98,-1.26,-11.61
39.89,0.27,0.08,-8.04
39.989998,0.78,-0.24,-9.69
40.089996,0.55,-0.35,-10.04
40.190002,0.78,-0.12,-12.2
40.29,0.55,0.71,-11.41
40.4,0.65,-0.9,-9.22
40.5,0.55,0.04,-8.83
40.6,0.31,-0.94,-9.61
40.699997,1.29,-1.22,-10.08
40.799995,0.27,-0.94,-11.26
40.909996,2.51,0.24,-13.61
41.010002,0.88,0.47,-8.55
41.11,0.67,-1.06,-10.43
41.21,0.86,0,-8.79
41.309998,2.39,-0.78,-9.34
41.42,1.1,-0.31,-12
41.519997,-3.77,-1.73,-13.42
41.619995,0.39,-0.9,-8
41.72,0.08,-0.39,-9.77
41.82,1.18,-0.86,-9.38
41.93,0.94,-1.22,-8.87
42.03,1.61,-1.26,-10.63
42.129997,3.84,-2.47,-13.22
42.229996,0.22,-1.49,-10.08
42.33,0.04,-1.57,-11.14
42.440002,0.2,-0.24,-8.08
42.54,0.98,-0.51,-9.06
42.64,1.77,-0.82,-10.75
42.739998,1.26,-0.27,-12.55
42.839996,0.31,0.35,-12.75
42.949997,0.73,-0.51,-8.47
43.049995,0.2,-0.78,-8.08
43.15,0.98,-1.18,-10
43.25,1.06,-0.82,-9.3
43.35,1.37,-1.57,-11.18
43.46,0.98,-0.08,-14.08
43.559998,0.86,0.59,-7.57
43.659996,0.08,-0.75,-10.36
43.760002,0.16,-0.12,-8.47
43.86,1.26,-0.31,-9.26
43.97,1.45,-0.51,-11.26
44.07,2.2,-0.12,-13.1
44.17,0.41,-0.35,-10
44.269997,0.02,-0.16,-10.9
44.369995,0.08,-0.82,-8.59
44.479996,-1.06,-0.82,-9.41
44.58,1.37,-0.98,-10.04
44.68,0.35,-1.65,-12.24
44.78,0.2,-1.61,-13.38
44.879997,0.65,0.04,-9.57
44.989998,0.12,0.12,-8.43
45.089996,0.08,0,-9.1
45.190002,1.84,-0.59,-10.04
45.29,1.18,-0.16,-11.96
45.39,2.79,-0.75,-12.08
45.5,0.08,-0.63,-9.53
45.6,0.04,-0.16,-9.53
45.699997,0.16,-0.63,-9.69
45.799995,1.33,-0.82,-9.1
45.9,0.9,-0.63,-10.71
46.010002,3.1,-2,-12.83
46.11,0.61,0.04,-8.16
46.21,0.04,-0.63,-11.49
46.309998,0.04,0.2,-8.43
46.409996,0.24,-0.24,-9.1
46.519997,1.26,-0.47,-10.43
46.619995,0.9,-0.04,-12.24
46.72,0.51,0.08,-12.63
46.82,0.8,-0.55,-9.26
46.92,0.06,-0.43,-8.75
47.03,0.24,-0.51,-10
47.129997,0,-0.47,-9.53
47.229996,0.55,-0.71,-12.32
47.33,1.33,-0.27,-13.38
47.43,0.69,1.61,-7.53
47.54,0.43,-0.24,-9.89
47.64,0.35,-0.27,-8.32
47.739998,1.69,0.31,-9.61
47.839996,1.77,-0.59,-11.41
47.940002,3.73,-1.49,-11.57
48.049995,0.12,0.78,-10.4
48.15,0.98,-0.63,-10.98
48.25,0.67,-0.47,-8.94
48.35,1.57,-0.86,-9.41
48.449997,2.08,-0.55,-9.77
48.559998,1.53,-1.18,-11.3
48.659996,1.88,0.04,-13.18
48.760002,0.88,0.24,-7.69
48.86,0.94,-0.86,-11.53
48.96,-0.59,-0.43,-8.9
49.07,1.65,-0.31,-8.83
49.17,-1.29,0.27,-10.08
49.269997,3.53,-0.2,-12.94
49.369995,0.35,1.1,-11.34
49.47,0.24,-1.37,-8
49.58,0.9,0.59,-10.24
49.68,1.1,-0.24,-9.38
49.78,1.57,-0.39,-8.98
49.879997,1.06,-0.08,-10.51
49.979996,4.35,-0.43,-13.26
50.089996,0.2,-0.31,-10.4
50.190002,0.27,-0.43,-10.4
50.29,0.16,0.55,-9.02
50.39,0.43,0.27,-9.22
50.489998,1.8,0.08,-10.4
50.6,1.61,-0.27,-11.49
50.699997,1.57,-0.27,-13.61
50.799995,0.33,0,-7.65
50.9,0.94,-0.2,-10.2
51,0.9,-0.47,-9.53
51.11,0.71,-0.47,-9.3
51.21,1.41,-0.35,-11.02
51.309998,3.3,-0.63,-12.51
51.409996,1.14,-0.51,-11.1
51.510002,0.9,-0.16,-10.47
51.619995,0.39,0.24,-8.04
51.72,0.63,0.35,-9.77
51.82,2.24,0.04,-10
51.92,-1.37,0.31,-12.47
52.019997,1.1,1.14,-12.36
52.129997,2.12,-0.31,-7.88
52.229996,1.57,-0.51,-9.69
52.33,1.57,-0.51,-9.77
52.43,2.16,-0.67,-9.14
52.53,0.43,-1.57,-10.59
52.64,4.43,-0.55,-13.45
52.739998,0.82,0.59,-9.41
52.839996,0.31,-0.31,-11.18
52.940002,0.04,0.08,-8.28
53.04,0.98,0.75,-9.61
53.15,1.96,0,-10.32
53.25,1.57,0.71,-11.96
53.35,-1.26,0.9,-12.12
53.449997,0.84,-0.43,-7.92
53.549995,0.94,-0.12,-9.45
53.659996,1.69,-0.47,-9.85
53.760002,1.49,-0.43,-9.34
53.86,-1.18,-0.47,-10.55
53.96,-3.06,-0.08,-14.08
54.059998,0.59,1.1,-8.67
54.17,0.71,-0.75,-11.26
54.269997,0.9,0.78,-8.51
54.369995,0.63,0.51,-8.98
54.47,1.77,-0.2,-10.79
54.57,1.22,0.86,-11.49
54.68,0.31,1.22,-12.12
54.78,0.18,0,-9.57
54.879997,0.82,0.04,-8.71
54.979996,0.78,-0.2,-9.92
55.08,1.29,-0.24,-9.61
55.190002,0.94,-0.9,-11.57
55.29,1.61,0.86,-12.94
55.39,0.37,1.02,-8.39
55.489998,0.82,0.43,-10.51
55.589996,0.24,0.55,-8.75
55.699997,-1.14,0.67,-9.14
55.799995,0.82,0.39,-10.59
55.9,1.88,0,-14.08
56,1.77,-0.24,-10.87
56.100006,0.57,0.04,-10.12
56.20999,0.86,-0.24,-8.2
56.309998,-1.14,-0.24,-10.08
56.410004,1.33,-0.43,-10.55
56.509995,1.61,-2,-12.32
56.61,0.08,-0.47,-12.51
56.72,0.47,0.71,-8.24
56.819992,0.47,-0.39,-9.89
56.92,0.12,0.31,-9.65
57.020004,1.37,-0.2,-9.69
57.119995,1.02,0,-11.77
57.229996,1.77,-0.35,-13.1
57.33,0.49,0,-7.77
57.429993,0.71,-0.55,-11.53
57.53,0.16,0.04,-9.14
57.630005,0.51,-0.78,-8.9
57.740005,0.94,-0.24,-10.9
57.839996,3.65,-1.49,-14.2
57.940002,0.59,-0.35,-9.41
58.039993,0.67,-0.86,-11.22
58.14,0.2,-0.04,-7.18
58.25,0.27,0.2,-9.73
58.350006,1.73,0.31,-10.67
58.449997,1.06,0.59,-12.28
58.550003,0.16,1.26,-13.61
58.649994,0.08,-0.55,-6.67
58.759995,0.12,-0.08,-9.92
58.86,0.55,-0.08,-9.73
58.95999,1.22,-0.27,-9.53
59.059998,0.67,-0.47,-10.75
59.160004,3.14,-0.16,-14.24
59.270004,0.82,0.55,-9.18
59.369995,0.16,-1.26,-11.53
59.47,-0.24,0.43,-7.69
59.569992,0.55,0.39,-9.49
59.67,2.28,0.04,-10.55
59.78,1.33,1.45,-12.71
59.880005,0.22,0.71,-11.96
59.979996,0.61,-0.2,-9.34
60.08,-0.08,-0.08,-8.47
60.179993,-0.94,-0.24,-9.81
60.289993,1.49,-0.47,-9.92
60.39,0.94,-1.18,-11.81
60.490005,0.24,-1.29,-12.87
60.589996,0.43,0.43,-8.16
60.690002,0.27,-0.27,-9.77
60.800003,0.24,0.43,-9.49
60.899994,0.78,0.27,-9.96
61,0.55,0.31,-11.89
61.100006,1.06,-0.39,-12.43
61.199997,0.14,-0.2,-6.94
61.309998,-0.67,0.04,-9.3
61.410004,1.02,0.04,-9.41
61.509995,0.9,-0.39,-9.14
61.61,-1.33,-0.27,-11.22
61.70999,2.51,0.16,-14.08
61.819992,0.3,-0.24,-7.85
61.92,0.08,-1.1,-10.28
62.020004,0.2,0.86,-9.06
62.119995,1.29,0.55,-10.2
62.22,0.94,0.55,-10.75
62.33,3.57,-1.22,-12.32
62.429993,0.98,1.14,-10.71
62.53,0.47,-1.14,-10.51
62.630005,0.16,0.35,-8.2
62.729996,0.82,-0.27,-9.96
62.839996,1.92,0,-9.81
62.940002,1.57,-0.2,-12.4
63.039993,0.51,-0.78,-13.77
63.14,0.63,-0.24,-9.65
63.240005,0.39,-0.51,-8.59
63.350006,0.47,0.86,-9.61
63.449997,2.16,0.39,-10.2
63.550003,0.86,0.27,-11.57
63.649994,2.08,-0.94,-13.06
63.75,0.39,-0.27,-8.94
63.86,0.12,0.08,-10.59
63.95999,1.73,-0.24,-10.36
64.06,-0.43,-0.86,-9.38
64.16,2.04,0.24,-10.04
64.259995,1.37,-0.67,-11.96
