NAME:,running5,,
EXPERIMENT TIME:,05/06/2023 19:31,,
ACTIVITY TYPE:,Running,,
COUNT OF ACTUAL STEPS:,140,,
,,,
Time [sec],ACC X,ACC Y,ACC Z
0.001,0.08,0.47,9.06
0.002,-0.04,0.47,8.83
0.003,-0.08,0.59,8.67
0.004,0.04,0.51,8.32
0.005,0.04,0.86,8.9
0.006,0.08,0.78,8.75
0.007,-0.27,0.43,9.18
0.008,-0.24,0.63,9.45
0.009,-0.39,1.29,9.77
0.01,-0.86,1.22,10.28
0.011,-0.47,0.55,8.63
0.012,-0.82,-0.31,8.83
0.013,-0.27,0.59,8.51
0.014,-0.39,0.43,8.59
0.015,-0.35,0.27,8
0.016,-0.63,-0.24,7.81
0.017,-0.67,-0.2,8.04
0.018,-0.98,-0.47,8.83
0.019,-0.59,-0.31,9.14
0.02,-0.9,-0.86,8.94
0.021,-0.86,-1.18,8.36
0.022,-0.43,-1.14,7.69
0.023,-0.08,-2.2,8.67
0.024,0.47,0.47,12.04
0.025,0.55,0.59,12.91
0.026,0.16,1.61,12.87
0.027,0.39,0.35,10.75
0.028,1.02,0.16,9.77
0.029,0.35,0.71,9.73
0.03,0.71,-0.04,6.94
0.031,0.59,-0.59,6.86
0.032,1.14,-0.55,8.16
0.033,1.69,-0.35,6.39
0.034,0.63,-2.47,5.3
0.035,0.39,-1.41,5.26
0.036,0.27,-1.61,4.94
0.037,-0.04,-1.37,6.9
0.038,-0.63,-0.31,9.45
0.039,-1.37,1.33,12.47
0.04,-0.67,0.98,13.1
0.041,0,1.57,12.79
0.042,-1.96,-1.33,14.59
0.043,-1.22,0.31,13.93
0.044,-0.55,-1.37,11.85
0.045,-0.71,-0.9,9.53
0.046,-0.04,-2.59,4
0.047,0.59,-2.47,2.35
0.048,0.55,-1.14,2.63
0.049,1.53,-2.75,2.67
0.05,1.84,-3.33,4.04
0.051,2.55,-6.63,8.59
0.052,2.08,-5.81,20.01
0.053,-1.45,3.02,20.01
0.054,-2.86,-0.2,15.77
0.055,-1.61,1.88,9.3
0.056,-0.94,2.31,4.59
0.057,-0.39,2.28,0.67
0.058,-2,2.28,1.61
0.059,-1.49,3.57,1.37
0.06,-1.1,4.71,-0.51
0.061,-4,0.04,3.61
0.062,-3.33,-1.77,15.97
0.063,-1.29,1.37,19.18
0.064,-2.55,-4.16,19.53
0.065,-1.73,-4.35,11.14
0.066,-0.82,-3.57,8.39
0.067,2.55,-2.04,4.98
0.068,3.1,-3.61,7.06
0.069,3.3,-1.29,7.96
0.07,2.35,-0.08,9.22
0.071,-0.78,0.31,18.63
0.072,-2.98,4.24,20.01
0.073,-3.18,4.94,14.44
0.074,-4.75,-0.94,8.39
0.075,-2.67,1.33,7.57
0.076,-0.55,4.16,1.77
0.077,-2.08,2.43,3.45
0.078,-2.35,4.16,1.57
0.079,-1.26,4.31,0.31
0.08,-2.98,3.02,1.02
0.081,-2.79,-2.79,14.16
0.082,-2.12,2.94,17.1
0.083,-7.14,-4.82,19.97
0.084,-3.02,-5.1,10.47
0.085,0.04,-1.84,5.49
0.086,0.71,-1.88,6.9
0.087,1.65,-0.04,7.34
0.088,4.47,-2.86,7.49
0.089,2.67,0,11.65
0.09,-0.86,-0.71,18.51
0.091,-4.47,4.59,20.01
0.092,-4.28,3.53,15.89
0.093,-3.49,0.82,9.02
0.094,-2.28,-0.08,5.49
0.095,-1.41,2.59,2.16
0.096,-1.26,2.79,-0.63
0.097,-1.84,2.51,0.31
0.098,-1.92,3.8,0.55
0.099,-3.65,2.47,2.86
0.1,-2.51,-7.1,12.04
0.101,-4.9,5.37,20.01
0.102,-3.8,-1.96,14.08
0.103,-2.24,4.24,2.39
0.104,-2.04,-4.16,6
0.105,0.47,-0.43,6.63
0.106,2.55,-3.49,7.02
0.107,3.61,-4.55,6.59
0.108,3.1,-1.8,7.3
0.109,0.39,-2.9,13.81
0.11,-1.53,-2.51,20.01
0.111,-3.8,6.51,20.01
0.112,-4.39,5.18,7.41
0.113,-3.77,-3.18,5.37
0.114,-1.53,5.33,8.51
0.115,-1.22,4.04,3.3
0.116,-1.41,1.18,1.22
0.117,-1.29,3.53,2.71
0.118,-2.55,4.75,0.35
0.119,-5.3,-0.2,2.67
0.12,-6.83,2.35,19.14
0.121,-7.14,2,20.01
0.122,-2.51,-9.69,15.34
0.123,0.35,-3.8,9.14
0.124,1.73,-1.02,5.37
0.125,2.2,-7.34,5.41
0.126,4.55,-2.63,4.51
0.127,2.86,-4.98,8.04
0.001,1.1,-0.04,11.26
0.002,-2.63,1.1,18.44
0.003,-6.16,2.39,20.01
0.004,-4.24,4.2,13.53
0.005,-4.67,1.84,7.53
0.006,-3.22,1.69,6.83
0.007,-2.31,4.79,3.37
0.008,-1.29,4.51,0.63
0.009,-2.55,3.8,1.77
0.01,-2.75,4.24,3.22
0.011,-3.65,2.43,1.77
0.012,-8.39,-2.86,20.01
0.013,-3.53,4.43,18.01
0.014,-2.43,-7.41,11.06
0.015,-3.57,-7.92,9.3
0.016,-0.75,-4.08,5.65
0.017,1.18,0.47,7.06
0.018,3.69,-1.41,3.14
0.019,3.73,-2.75,7.57
0.02,1.8,-0.31,11.53
0.021,-1.65,-2.51,20.01
0.022,-3.57,8.16,20.01
0.023,-3.69,6.83,12.79
0.024,-4.51,-0.98,6.9
0.025,-2.12,3.8,4.12
0.026,-0.9,4.98,-0.31
0.027,-2.12,3.26,0.47
0.028,-1.84,2.98,1.49
0.029,-1.37,4.28,0.31
0.03,-4,3.06,5.53
0.031,-6.55,-9.96,16.83
0.032,-4.04,5.22,18.04
0.033,-3.8,-1.02,10.43
0.034,-5.92,-9.1,8.98
0.035,-2,-3.22,4.12
0.036,1.69,-3.84,-0.39
0.037,2.47,-2.67,5.84
0.038,3.3,-1.33,8.67
0.039,2.16,-0.78,12.43
0.04,-1.33,-1.14,19.3
0.041,-4.86,3.88,20.01
0.042,-6.2,6.39,20.01
0.043,-4.39,3.88,9.85
0.044,-2.08,0.59,3.96
0.045,-1.8,5.3,2.35
0.046,-1.69,2.98,-0.82
0.047,-1.92,2.16,-0.59
0.048,-1.57,2.86,1.14
0.049,-2.79,3.49,3.37
0.05,-3.49,-2.24,10.4
0.051,-7.61,1.14,20.01
0.052,-7.45,1.69,16.83
0.053,-3.18,-9.85,12.12
0.054,-0.2,-0.71,9.06
0.055,-0.12,-3.22,6
0.056,-0.2,-4.71,6.51
0.057,2.82,-3.3,2.98
0.058,2.31,-4.43,8.43
0.059,1.41,1.49,13.49
0.06,0.75,-4.55,19.46
0.061,-4.82,0,20.01
0.062,-5.1,5.49,14.32
0.063,-2.39,-0.2,3.49
0.064,-1.45,1.61,2.28
0.065,-1.29,6.35,1.61
0.066,-1.37,1.45,-0.59
0.067,-1.02,1.49,0.86
0.068,-3.33,3.33,4.47
0.069,-1.77,-15.53,13.85
0.07,-5.26,1.06,19.81
0.071,-4.04,-0.67,12.36
0.072,-4.98,-5.96,13.1
0.073,-0.82,-3.73,6.12
0.074,0.2,-3.1,3.92
0.075,1.18,-3.96,9.41
0.076,2.75,-0.78,8.08
0.077,1.06,-3.77,10.04
0.078,0.43,-0.39,15.34
0.079,-1.45,2.51,18.48
0.08,-3.41,3.3,18.44
0.081,-3.53,0.9,7.69
0.082,-2,1.8,5.3
0.083,-2.08,6.08,4.98
0.084,-1.02,3.92,0.39
0.085,-2.39,2.94,1.18
0.086,-3.1,3.37,2.9
0.087,-1.84,0.78,1.1
0.088,-1.88,0.12,7.45
0.089,-4.9,-3.73,19.77
0.09,-1.1,-6.04,16.16
0.091,-5.45,-0.75,20.01
0.092,-0.75,-1.29,11.26
0.093,-0.35,-3.49,5.57
0.094,0.75,-2.71,8.28
0.095,4.2,-1.73,2.71
0.096,2.2,-2.43,9.02
0.097,-0.59,2.71,15.97
0.098,0.12,-0.71,19.53
0.099,-3.45,5.45,20.01
0.1,-6.2,5.18,14.12
0.101,-2.63,-1.26,2.08
0.102,-3.26,4.31,3.49
0.103,-3.06,3.8,2.04
0.104,-2.31,1.45,-1.14
0.105,-1.61,3.26,-0.43
0.106,-3.26,4.12,2.55
0.107,-4.67,-0.04,5.84
0.108,-4.98,-3.1,17.18
0.109,-3.96,8.79,19.38
0.11,-4.24,-4.75,15.1
0.111,-1.37,-5.49,12.43
0.112,1.8,-2.67,10.79
0.113,2.39,-3.18,7.34
0.114,1.29,-1.96,5.65
0.115,0.04,-0.86,12.75
0.116,1.14,1.8,15.77
0.117,-0.86,0.59,19.97
0.118,-2.71,5.26,16.4
0.119,-2.24,3.14,6.55
0.12,-1.37,0.2,3.41
0.121,-1.41,5.33,3.14
0.122,-1.02,4.67,-0.16
0.123,-0.63,1.77,-2.28
0.124,-2.04,2.75,2.51
0.125,-5.69,2.16,10.43
0.126,-2.71,-13.49,18.95
0.127,-7.02,6.2,20.01
0.128,-1.14,-1.61,8.83
0.129,-1.84,-8.36,4.71
0.13,-1.73,0.35,7.85
0.131,0.27,0.9,7.34
0.132,2.12,-0.98,6.24
0.133,2.59,-1.84,7.18
0.134,0.39,-0.63,14.32
0.135,1.22,-0.82,16.12
0.136,-0.9,1.84,20.01
0.137,-5.14,5.14,17.1
0.138,-2.43,-1.61,4.86
0.139,-1.88,2.31,1.33
0.14,-2.08,4.79,0.16
0.141,-2.04,2.94,0.39
0.142,-2.51,4.16,0.35
0.143,-2.55,3.57,1.92
0.144,-4.24,-0.78,7.06
0.145,-6.08,-2.31,20.01
0.146,-8.79,7.18,20.01
0.147,-3.88,-3.26,14.75
0.148,-0.98,-5.1,12.94
0.149,2.12,0.27,8.71
0.15,2.9,-4.82,3.18
0.151,3.65,-3.73,1.73
0.152,3.45,-2.71,4.04
0.153,0.35,0,12.87
0.154,-2.28,0.59,20.01
0.155,-5.92,6.35,20.01
0.156,-5.3,4.2,11.65
0.157,-3.49,-2.2,3.57
0.158,-2.63,4.12,2.82
0.159,-1.22,5.3,-1.18
0.16,-1.96,1.84,-3.41
0.161,-4.16,3.14,1.06
0.162,-5.92,2.47,6.43
0.163,-3.41,-6.63,14.87
0.164,-7.37,7.88,20.01
0.165,-4.24,-2.24,14.79
0.166,-2.2,-7.96,6.47
0.167,-0.24,-1.96,4.71
0.168,0.35,-2.55,6.55
0.169,4.31,-4.2,3.41
0.17,2.98,-1.61,5.92
0.171,0.63,-1.57,12.47
0.172,-0.39,2.08,14.24
0.173,-4.2,2.51,19.57
0.174,-6.79,6.9,15.26
0.175,-4.51,5.02,5.3
0.176,-1.45,1.61,3.06
0.177,-1.61,7.3,5.1
0.178,-2.79,2.08,1.02
0.179,-2.55,-1.02,1.41
0.18,-4.9,5.57,6.51
0.181,-3.53,-0.31,5.65
0.182,-3.41,-2.08,16.24
0.183,-10.71,9.89,20.01
0.184,-5.3,-6.67,13.06
0.185,-1.8,-3.69,3.06
0.186,-1.8,3.3,8.04
0.187,0,-1.61,8.28
0.188,1.1,-3.8,6.32
0.189,3.37,-1.61,3.65
0.19,-0.78,2,12
0.191,-1.61,3.02,14.63
0.192,-4.79,3.18,20.01
0.193,-5.3,9.34,14.36
0.194,-3.49,-0.43,3.02
0.195,-1.33,4.55,2.71
0.196,-1.49,6.75,1.92
0.197,-2.43,2.28,-0.08
0.198,-4.04,2.31,2.59
0.199,-4.43,5.37,4.71
0.2,-2.71,-4.43,7.26
0.201,-7.18,10.63,20.01
0.202,-6.43,-0.51,14.75
0.203,-6.16,-1.65,15.53
0.204,-0.59,-1.41,9.3
0.205,0.43,-1.1,7.81
0.206,0.59,-4.2,8.36
0.207,2.47,-3.14,3.18
0.208,2.35,-2.35,6.79
0.209,1.1,2.24,12.98
0.21,-3.1,4.82,20.01
0.211,-7.96,10.67,20.01
0.212,-5.14,5.73,7.96
0.213,-2.86,1.33,2.63
0.214,-2.59,4.71,3.61
0.215,-1.73,3.53,0.08
0.216,-2.55,2.28,-1.45
0.217,-3.45,4.04,1.84
0.218,-4.2,4.71,5.33
0.219,-4.94,-1.88,13.34
0.22,-7.22,4.9,20.01
0.221,-7.02,1.84,16.79
0.222,-3.8,-8.83,8.39
0.223,-0.78,-2.39,4.16
0.224,0.47,-2.08,3.18
0.225,0.67,-4.39,4.86
0.226,1.33,-1.8,5.26
0.227,2.24,-2.04,7.45
0.228,0,1.45,15.22
0.229,-0.04,1.65,19.93
0.23,-6.47,8.59,20.01
0.231,-7.06,6.67,12.83
0.232,-2.94,0.39,2.2
0.233,-3.14,3.22,3.3
0.234,-1.92,4.2,0.27
0.235,-1.77,3.06,-1.26
0.236,-3.02,3.88,-0.75
0.237,-4.79,4.55,4.16
0.238,-6.35,0.63,11.85
0.239,-8.83,3.45,20.01
0.24,-6,4.55,16.75
0.241,-5.77,-5.69,12.63
0.242,-2.63,-4.35,6.47
0.243,-0.2,-1.45,4.16
0.244,1.02,-2.79,2.2
0.245,1.77,-4.24,4.2
0.246,1.45,-3.61,6.08
0.247,0.31,-1.22,12.94
0.248,-2.55,0.47,20.01
0.249,-5.69,7.61,20.01
0.25,-5.69,7.22,12.83
0.251,-3.96,0.43,4
0.252,-3.06,3.22,3.33
0.253,-1.57,3.77,-0.16
0.254,-2.43,2.51,0.27
0.255,-3.26,3.88,-1.33
0.256,-5.49,5.41,4.75
0.257,-7.02,0.71,9.81
0.258,-10.2,3.69,20.01
0.259,-6.67,2.79,15.53
0.26,-4.98,-6.9,11.06
0.261,-1.88,-5.53,7.96
0.262,0.75,-3.02,5.06
0.263,0.98,-3.77,4.31
0.264,2.16,-3.45,3.73
0.265,1.84,-2.51,5.92
0.266,-0.31,-0.16,12.55
0.267,-3.3,0.82,20.01
0.268,-7.26,9.61,20.01
0.269,-6.04,6.55,12.4
0.27,-3.73,-0.16,3.84
0.271,-3.06,3.22,2.79
0.272,-1.45,3.33,-1.18
0.273,-1.96,2.67,-1.69
0.274,-3.06,3.41,-0.82
0.275,-5.73,3.41,3.41
0.276,-8.36,-5.14,19.69
0.277,-6.39,8.39,20.01
0.278,-5.92,0.94,14.71
0.279,-4.63,-7.18,13.73
0.28,0.08,-1.29,5.88
0.281,0.63,-2.94,3.41
0.282,0.94,-4.79,2.55
0.283,1.69,-3.53,2.98
0.284,0.71,-2.75,8.08
0.285,0.63,-0.86,13.45
0.286,-4.31,3.61,20.01
0.287,-7.85,8.94,20.01
0.288,-5.57,1.92,7.14
0.289,-4.08,-0.55,4.31
0.29,-2.16,4.51,2.08
0.291,-1.41,3.88,-1.88
0.292,-1.1,2.39,-1.33
0.293,-1.49,4.24,-1.96
0.294,-5.3,3.3,3.26
0.295,-7.53,-4.67,14.79
0.296,-8.36,7.22,19.1
0.297,-8.67,4.24,18.36
0.298,-9.77,-6.47,18.87
0.299,-1.57,-1.73,6.86
0.3,1.53,-3.69,5.02
0.301,2.75,-4.67,3.61
0.302,2.2,-1.14,8.55
0.303,-1.06,2.08,13.85
0.304,-5.02,1.29,20.01
0.305,-8.28,10.12,20.01
0.306,-6.75,3.41,8.2
0.307,-4,-1.06,3.41
0.308,-2.16,4.12,1.02
0.309,-1.37,2.2,-1.92
0.31,-2.55,2.67,-1.49
0.311,-2.39,3.14,-2.24
0.312,-4.79,4.16,3.73
0.313,-8.87,0.59,10.28
0.314,-12.63,4.31,20.01
0.315,-8.51,2.55,18.4
0.316,-4.98,-6.12,10.71
0.317,-2.12,-4.67,4.39
0.318,-2.28,-3.49,5.69
0.319,-1.29,-4.47,6.75
0.32,1.73,-3.26,2.35
0.321,0.55,-3.88,7.18
0.322,-0.31,0.08,11.89
0.323,-3.3,-0.27,20.01
0.324,-8.59,10.16,20.01
0.325,-6.39,4.55,8.67
0.326,-3.65,-0.24,1.02
0.327,-3.22,2.75,1.65
0.328,-1.14,3.96,-1.18
0.329,-2.63,3.84,-3.26
0.33,-4.31,2.31,-1.45
0.331,-5.84,3.84,3.57
0.332,-8.94,-2.43,10.36
0.333,-11.85,2.2,20.01
0.334,-6.94,4.75,19.1
0.335,-5.26,-5.53,11.34
0.336,-1.92,-5.57,4.67
0.337,-0.12,-3.61,2.67
0.338,0.98,-5.02,3.1
0.339,1.96,-1.92,6.32
0.34,1.26,-0.2,9.73
0.341,-1.96,1.29,14.91
0.342,-6.59,5.53,20.01
0.343,-10.08,10.9,20.01
0.344,-5.61,2.2,6.9
0.345,-3.45,0.51,2.82
0.346,-2.51,2.2,2
0.347,-1.49,2.31,-2.2
0.348,-2.31,2.55,-3.06
0.349,-2.98,3.14,-1.96
0.35,-6.55,4,3.3
0.351,-9.65,2.2,20.01
0.352,-8.51,8.2,20.01
0.353,-8.59,-1.96,17.65
0.354,-4.79,-4.75,11.89
0.355,-1.96,-3.69,7.41
0.356,-0.47,-4.51,5.69
0.357,1.33,-3.45,2.9
0.358,1.37,-3.37,3.88
0.359,0.9,-2.24,7.77
0.36,0.16,-0.67,12.71
0.361,-6.08,3.45,20.01
0.362,-8.98,10.24,20.01
0.363,-6.08,2.31,7.85
0.364,-3.49,0.67,3.57
0.365,-2.08,2.98,1.41
0.366,-1.1,2.51,-2.2
0.367,-1.57,2.04,-3.26
0.368,-2.98,4.9,-1.29
0.369,-6.24,3.8,3.49
0.37,-9.81,2.59,18.28
0.371,-8.04,9.73,19.85
0.372,-9.06,-1.22,19.1
0.373,-5.92,-3.53,13.89
0.374,-1.65,-2.82,6.39
0.375,-1.06,-4.71,5.45
0.376,1.61,-3.77,1.45
0.377,2.2,-3.84,3.69
0.378,1.49,-3.14,7.02
0.379,0.47,-1.02,14.2
0.38,-8.87,8,20.01
0.381,-8.94,9.65,20.01
0.382,-6.32,3.41,8.24
0.383,-3.96,1.49,4.63
0.384,-1.92,3.73,0.67
0.385,-1.65,2.86,-0.86
0.386,-1.49,2.51,-3.37
0.387,-2.55,2.63,-3.88
0.388,-6.43,3.33,0.55
0.389,-8.59,0.16,8.32
0.39,-9.65,11.41,20.01
0.391,-11.18,3.88,20.01
0.392,-7.06,-4.08,11.45
0.393,-2.51,-2.51,5.06
0.394,-1.65,-2.94,4.63
0.395,0.86,-3.77,3.37
0.396,2.16,-2.67,3.65
0.397,1.61,-4.47,6.32
0.398,-0.2,-1.41,11.81
0.399,-3.45,1.88,20.01
0.4,-8.24,9.77,20.01
0.401,-7.18,6.75,13.26
0.402,-5.1,1.49,5.65
0.403,-3.53,2.86,2.94
0.404,-1.8,2.39,-1.26
0.405,-1.84,3.18,-2.86
0.406,-2.28,3.3,-3.73
0.407,-2.9,5.49,-3.1
0.408,-5.88,0,4.08
0.409,-10.12,10.4,20.01
0.41,-9.26,6.43,20.01
0.411,-8.32,-1.8,19.34
0.412,-4.08,-3.69,8.71
0.413,-2.55,-5.77,5.65
0.414,0.16,-5.02,3.57
0.415,3.18,-4.28,2.35
0.416,2.86,-3.96,4.39
0.417,1.8,0.2,10.83
0.418,-3.18,1.73,20.01
0.419,-8.43,6.12,20.01
0.42,-8.04,8.12,15.1
0.421,-4.2,0.51,3.26
0.422,-3.33,3.06,2.12
0.423,-2.08,3.14,-1.41
0.424,-1.57,2.63,-3.96
0.425,-2.9,3.77,-3.96
0.426,-4.63,2.79,0.31
0.427,-7.57,0.43,6.35
0.428,-10.63,9.85,20.01
0.429,-8.63,5.26,20.01
0.43,-5.18,-2.75,14.51
0.431,-1.69,-2.55,6.43
0.432,0.04,-5.61,4.39
0.433,3.33,-4.43,1.73
0.434,4.28,-3.49,2.08
0.435,2.35,-3.18,6.47
0.436,0.35,0.82,13.06
0.437,-8.36,4.55,20.01
0.438,-11.3,8.79,20.01
0.439,-8.39,5.92,10.55
0.44,-4.75,3.02,4.55
0.441,-2.08,3.77,-0.39
0.442,-1.33,2.94,-1.8
0.443,-2.63,3.26,-3.02
0.444,-2.86,3.3,-2.55
0.445,-7.18,3.41,1.41
0.446,-8.75,0.2,15.93
0.447,-7.18,11.06,20.01
0.448,-7.85,1.06,20.01
0.449,-2.51,-3.88,9.22
0.45,-0.98,-4.47,5.73
0.451,-0.31,-5.69,5.26
0.452,3.02,-4.04,3.06
0.453,2.82,-3.45,5.1
0.454,0.55,0.71,11.96
0.455,-1.8,0.16,16
0.456,-8.79,6.16,20.01
0.457,-10.28,9.89,19.85
0.458,-5.18,2.35,4.12
0.459,-2.59,2.16,0.35
0.46,-1.57,3.77,-3.3
0.461,-1.18,2.75,-6.63
0.462,-2.94,3.1,-4.79
0.463,-4.35,5.49,0.27
0.464,-8.28,3.37,4.94
0.465,-11.73,5.69,20.01
0.466,-10,7.77,20.01
0.467,-5.53,-3.8,13.38
0.468,-2.86,-4.55,7.34
0.469,-1.49,-4.28,4.08
0.47,1.1,-5.26,2.55
0.471,2.82,-4.04,2.24
0.472,1.92,-3.53,5.49
0.473,0.08,0.43,11.92
0.474,-1.96,0.24,18.63
0.475,-8.55,8.08,20.01
0.476,-9.57,8.55,19.26
0.477,-5.96,1.77,5.84
0.478,-3.69,2.59,2.04
0.479,-2.71,2.82,-0.86
0.48,-1.92,3.26,-3.37
0.481,-2,2.43,-5.49
0.482,-3.3,4.28,-3.37
0.483,-6.2,4.16,4.51
0.484,-12.47,2.12,20.01
0.485,-12.59,13.02,20.01
0.486,-6.51,-2.24,13.3
0.487,-3.88,-6.04,7.69
0.488,-2.04,-4.55,4.43
0.489,0.43,-5.49,2.75
0.49,2.94,-6.12,1.8
0.491,2.47,-3.1,5.02
0.492,0.12,-1.49,13.26
0.493,-0.71,1.1,19.46
0.494,-8.24,7.85,20.01
0.495,-10.12,7.61,18.79
0.496,-5.37,1.65,4.82
0.497,-3.02,3.14,1.77
0.498,-1.69,2.75,-2.31
0.499,-1.33,3.65,-4.59
0.5,-2.16,4.16,-5.26
0.501,-3.61,4.75,-2.86
0.502,-7.77,3.06,2.98
0.503,-12.79,4.94,20.01
0.504,-11.3,9.22,20.01
0.505,-7.41,-3.96,14.95
0.506,-3.8,-5.73,7.57
0.507,-2.24,-4.71,4.86
0.508,0.51,-5.61,1.45
0.509,2.79,-5.65,-0.04
0.51,2.47,-3.37,4.55
0.511,1.96,-2.47,9.57
0.512,-0.86,-0.35,20.01
0.513,-8.43,8.28,20.01
0.514,-8.71,8,17.42
0.515,-6.16,3.06,6.39
0.516,-3.22,2.08,0.04
0.517,-2.31,3.96,-1.8
0.518,-1.69,3.73,-4.82
0.519,-2.82,3.8,-4.82
0.52,-4.31,4.39,-1.02
0.521,-7.14,0.59,6.32
0.522,-13.49,4.63,20.01
0.523,-11.02,7.53,20.01
0.524,-7.41,-4.86,13.89
0.525,-3.49,-5.22,5.81
0.526,-2.08,-4.67,3.77
0.527,0.16,-4.94,3.96
0.528,2.39,-4.24,3.33
0.529,2.51,-4.43,7.53
0.53,-0.9,-0.2,16.08
0.531,-5.81,2.35,20.01
0.532,-9.69,9.69,20.01
0.533,-9.53,8,12.79
0.534,-5.37,0.82,2.31
0.535,-2.55,4.24,-0.67
0.536,-1.18,3.18,-2.35
0.537,-1.57,2.79,-4.59
0.538,-2.2,4.59,-3.41
0.539,-5.69,4.75,2.16
0.54,-9.22,-0.04,11.57
0.541,-12.2,10.71,20.01
0.542,-10.08,2.75,19.85
0.543,-7.1,-5.61,10.55
0.544,-4.04,-5.18,5.18
0.545,-1.33,-5.61,2.59
0.546,1.22,-5.57,2.47
0.547,2.47,-5.3,3.49
0.548,1.77,-4.12,8.04
0.549,-2.08,0.39,16.95
0.55,-7.18,2.12,20.01
0.551,-11.85,11.02,20.01
0.552,-7.53,4.94,8.04
0.553,-3.92,1.69,1.18
0.554,-1.8,3.88,-2.31
0.555,-1.1,3.02,-4.59
0.556,-1.57,2.24,-4.98
0.557,-3.1,5.18,-1.92
0.558,-7.45,4.55,3.65
0.559,-9.77,-2.47,14.71
0.56,-12.59,10.47,20.01
0.561,-8.39,-0.55,17.22
0.562,-6.16,-6.04,12.2
0.563,-2.31,-5.96,4.2
0.564,-1.57,-6.12,4.04
0.565,1.06,-3.53,1.84
0.566,2.47,-3.18,2.9
0.567,1.29,-2.04,7.22
0.568,-2.51,-1.02,18.99
0.569,-8.08,8,20.01
0.57,-9.92,8.63,20.01
0.571,-7.49,3.41,7.81
0.572,-3.61,1.41,1.8
0.573,-1.8,4.31,-1.06
0.574,-0.86,4.04,-3.57
0.575,-0.27,3.73,-4.24
0.576,-1.88,5.92,-1.57
0.577,-8.55,2,5.92
0.578,-10.16,-0.59,18.63
0.579,-12.36,6.86,20.01
0.58,-9.73,-1.77,14.4
0.581,-5.02,-3.41,6.94
0.582,-2.16,-2.86,4.67
0.583,-1.06,-2.31,6.47
0.584,1.41,-4.2,5.41
0.585,3.53,-5.3,2.86
0.586,1.22,-3.88,8.43
0.587,-2.04,-1.18,15.97
0.588,-7.45,3.45,20.01
0.589,-12.71,11.49,20.01
0.59,-6.35,4.24,6.2
0.591,-2.9,2.51,2.98
0.592,-1.33,2.9,1.45
0.593,-0.71,3.41,-3.45
0.594,-3.26,3.61,-4.08
0.595,-4.82,3.18,-1.61
0.596,-7.02,4.43,-1.22
0.597,-8.32,-3.22,13.3
0.598,-12.75,11.34,20.01
0.599,-9.14,-1.29,19.97
0.6,-5.37,-2.86,11.18
0.601,-2.43,-4.67,4.75
0.602,-0.08,-4.63,2.31
0.603,1.69,-5.65,2.63
0.604,2.55,-5.61,4.04
0.605,1.61,-1.73,9.53
0.606,-1.18,-0.24,16.12
0.607,-6.47,4.82,20.01
0.608,-11.1,8.39,20.01
0.609,-7.1,3.41,7.92
0.61,-3.18,1.61,1.73
0.611,-1.69,3.22,-0.98
0.612,-1.06,3.02,-2.82
0.613,-1.26,4.75,-3.69
0.614,-2.55,5.61,-1.96
0.615,-6.2,4.04,2.86
0.616,-7.69,-4.31,15.38
0.617,-10.43,11.14,20.01
0.618,-9.65,-5.1,19.77
0.619,-5.02,-5.37,6.59
0.62,-2.51,-3.1,4.67
0.621,-0.71,-4.04,6.2
0.622,1.65,-4.94,4.71
0.623,3.3,-3.49,3.18
0.624,1.26,-2.98,12.12
0.625,-1.92,-1.88,17.46
0.626,-8.08,3.45,20.01
0.627,-9.1,7.57,20.01
0.628,-5.65,2.55,6.98
0.629,-2.79,2.9,1.61
0.63,-1.84,5.06,-0.71
0.631,-0.71,3.33,-4.28
0.632,-1.49,4.47,-5.69
0.633,-3.1,6.2,-2.31
0.634,-8,4.39,3.73
0.635,-12.47,2.55,20.01
0.636,-16.12,8.75,20.01
0.637,-7.49,-5.33,10.94
0.638,-5.61,-5.33,7.65
0.639,-2.35,-4.24,3.73
0.64,0.55,-4.12,1.53
0.641,2.82,-6.47,1.26
0.642,2.79,-5.77,3.45
0.643,0.75,-3.53,12.79
0.644,-4.47,-2.12,20.01
0.645,-11.85,8.87,20.01
0.646,-9.22,6.12,12.91
0.647,-6,1.26,3.73
0.648,-2.63,4.39,-0.63
0.649,-1.18,4.75,-4.28
0.65,-0.78,5.53,-6.39
0.651,-1.18,5.81,-5.69
0.652,-4.08,6.51,-1.02
0.653,-11.85,-1.88,13.61
0.654,-13.06,9.89,20.01
0.655,-10.59,-0.63,20.01
0.656,-6.9,-5.65,10.28
0.657,-3.96,-5.14,4.43
0.658,-2.2,-3.22,3.77
0.659,1.14,-4.67,1.53
0.66,2.86,-5.26,1.06
0.661,1.65,-3.57,6.67
0.662,-2.51,-4.08,16.95
0.663,-6.04,-4.31,20.01
0.664,-10,6.94,20.01
0.665,-7.69,2.51,9.53
0.666,-3.33,2.59,1.88
0.667,-1.53,4.86,-0.55
0.668,-1.41,2.86,-3.3
0.669,-2.63,3.69,-4.04
0.67,-2.82,6.08,-3.41
0.671,-6.83,5.49,0.67
0.672,-13.42,-7.37,20.01
0.673,-15.06,10.47,20.01
0.674,-7.88,-5.1,16.55
0.675,-5.69,-5.96,8.04
0.676,-2.75,-5.53,2.12
0.677,-0.16,-5.92,-1.61
0.678,1.65,-5.65,-1.37
0.679,2.59,-4.82,2
0.68,0.86,-4.86,10.36
0.681,-4.04,-3.06,20.01
0.682,-10.08,5.06,20.01
0.683,-8.12,7.22,14.16
0.684,-5.1,2.35,3.45
0.685,-2.86,4.04,1.26
0.686,-2.55,4.39,-0.51
0.687,-2.82,4.12,-2.51
0.688,-2.75,3.8,-3.1
0.689,-5.37,5.02,-0.35
0.69,-9.69,-4.28,13.77
0.691,-16.16,9.14,20.01
0.692,-9.61,2.35,20.01
0.693,-6.98,-6.51,10.79
0.694,-3.06,-5.88,2.79
0.695,-1.8,-6.28,2.12
0.696,0.55,-5.77,1.8
0.697,2.24,-4.08,1.84
0.698,0.55,-3.33,9.45
0.699,-2.08,-0.35,19.1
0.7,-6.35,5.65,20.01
0.701,-9.69,8.59,20.01
0.702,-5.88,2.63,7.02
0.703,-2.71,2.59,1.02
0.704,-2.24,5.3,-0.24
0.705,-1.92,3.96,-4.67
0.706,-2.55,2.71,-4.9
0.707,-4.04,4.98,-2.12
0.708,-9.22,0.2,9.69
0.709,-13.42,2.86,20.01
0.71,-10.32,5.88,20.01
0.711,-6.98,-4.55,12.43
0.712,-3.61,-5.3,4.86
0.713,-1.84,-5.73,1.88
0.714,-0.51,-4.86,2.08
0.715,1.73,-4.35,1.8
0.716,1.41,-5.06,5.61
0.717,-1.45,1.77,14.91
0.718,-3.53,-2.55,20.01
0.719,-9.38,7.65,20.01
0.72,-9.3,4.51,13.06
0.721,-5.33,0.51,4.35
0.722,-2.43,3.45,0.08
0.723,-1.37,4.35,-1.88
0.724,-1.18,3.14,-4.59
0.725,-1.77,5.33,-3.77
0.726,-4.39,3.69,1.26
0.727,-9.18,-1.57,15.46
0.728,-11.38,8.28,20.01
0.729,-7.85,-0.63,18.63
0.73,-5.33,-5.92,9.1
0.731,-2.2,-4.2,2.9
0.732,-1.49,-3.84,2.16
0.733,-0.16,-4.04,0.86
0.734,2,-5.69,0.82
0.735,1.61,-3.77,6.63
0.736,-0.86,-3.69,15.53
0.737,-3.92,0.2,20.01
0.738,-7.96,7.57,20.01
0.739,-8.75,2.67,12.08
0.74,-4.51,0.27,4.55
0.741,-2.47,4.08,0.63
0.742,-2.12,3.18,-2.75
0.743,-1.65,3.53,-5.69
0.744,-1.8,3.73,-6.35
0.745,-4.75,5.45,-2.16
0.746,-9.61,0.16,17.22
0.747,-13.96,10.67,20.01
0.748,-8.98,-2.82,19.46
0.749,-6.98,-5.37,10.55
0.75,-4,-5.73,4.43
0.751,-1.45,-5.57,-0.04
0.752,0.04,-4.82,-1.57
0.753,2.47,-5.81,-1.22
0.754,1.92,-3.26,4.82
0.755,-0.55,-5.37,14.59
0.756,-7.92,1.49,20.01
0.757,-9.96,7.57,20.01
0.758,-7.37,2.47,8
0.759,-5.37,1.92,4.63
0.76,-1.73,3.8,-0.04
0.761,-1.02,2.9,-3.77
0.762,-1.37,3.96,-4.51
0.763,-2.16,5.45,-3.53
0.764,-5.49,6.08,-0.98
0.765,-11.38,-2.24,14.04
0.766,-18.95,10.24,20.01
0.767,-10.79,-2.59,16.59
0.768,-6.16,-5.81,7.37
0.769,-2.86,-4.47,2.98
0.77,0,-5.45,-0.86
0.771,1.33,-7.53,-0.78
0.772,0.94,-5.22,3.53
0.773,0.67,-3.73,7.57
0.774,-1.88,-2.51,17.14
0.775,-8.12,0.24,20.01
0.776,-11.02,8.32,20.01
0.777,-7.3,3.77,8.16
0.778,-4.43,1.61,2.55
0.779,-2.86,4.04,0.86
0.78,-1.18,3.18,-3.22
0.781,-2.12,3.61,-5.33
0.782,-4,5.22,-2.86
0.783,-6.83,7.06,0.31
0.784,-10.2,-5.33,16.16
0.785,-18.91,10.04,20.01
0.786,-7.69,-1.92,14.44
0.787,-4.67,-8.04,6.43
0.788,-3.57,-5.26,3.88
0.789,-1.8,-5.92,0.55
0.79,-0.16,-5.18,-0.51
0.791,0.9,-5.69,2.59
0.792,-0.16,-3.14,7.3
0.793,-2.79,-4.82,19.46
0.794,-8.87,9.3,20.01
0.795,-12.51,7.41,20.01
0.796,-6.28,1.73,4.9
0.797,-3.8,2.55,1.37
0.798,-2.98,3.49,-2.51
0.799,-1.57,4.31,-5.06
0.8,-2.24,4.39,-5.57
0.801,-4.24,6,-3.49
0.802,-8.47,-1.92,12.55
0.803,-11.73,10.16,20.01
0.804,-8.39,-1.37,19.46
0.805,-7.65,-6.32,12.83
0.806,-3.84,-5.88,3.88
0.807,-2.59,-4.55,2.2
0.808,0.39,-5.37,1.65
0.809,2.51,-7.02,0.16
0.81,1.41,-4.43,7.41
0.811,-1.18,-2.9,16.04
0.812,-7.02,0.9,20.01
0.813,-11.73,7.85,20.01
0.814,-7.73,5.77,11.06
0.815,-4.51,1.02,2.39
0.816,-2.75,4.47,0.35
0.817,-1.57,4.75,-4.98
0.818,-2.12,2.94,-5.73
0.819,-2.43,5.81,-3.1
0.82,-5.81,4.16,-0.31
0.821,-13.34,3.49,20.01
0.822,-13.06,1.65,20.01
0.823,-8.94,-5.02,17.53
0.824,-5.92,-7.85,9.57
0.825,-2.71,-7.3,2.75
0.826,-0.71,-6.16,0.75
0.827,1.14,-5.45,-1.33
0.828,1.49,-5.33,1.1
0.829,0.39,-3.49,8.43
0.83,-3.41,-5.37,20.01
0.831,-8.43,6.63,20.01
0.832,-8.2,5.33,16.99
0.833,-6.24,1.69,6.51
0.834,-3.3,1.33,1.57
0.835,-2.35,3.57,-0.04
0.836,-1.84,4.39,-2.08
0.837,-2.39,4.59,-4.24
0.838,-2.79,5.77,-3.53
0.839,-7.49,1.69,5.06
0.84,-14.2,5.26,20.01
0.841,-14.04,4.9,20.01
0.842,-8.55,-4.24,13.81
0.843,-5.45,-5.14,7.26
0.844,-2.75,-5.33,1.37
0.845,-1.18,-6.24,0.82
0.846,1.45,-6.24,-1.29
0.847,1.61,-6.24,3.8
0.848,-0.75,-3.1,13.38
0.849,-4.16,-3.65,20.01
0.85,-10.04,7.81,20.01
0.851,-8.59,6.67,14.87
0.852,-5.65,2.35,3.96
0.853,-2.43,4.67,0
0.854,-1.26,5.1,-2.82
0.855,-1.14,4,-5.77
0.856,-2.75,4.28,-3.37
0.857,-5.1,8.47,-0.47
0.858,-10.79,-4.63,12.71
0.859,-17.06,10.63,20.01
0.86,-8.36,-0.71,18.2
0.861,-5.57,-6.63,10.83
0.862,-3.26,-4.82,6.71
0.863,-0.86,-6.59,5.69
0.864,1.73,-6.59,2
0.865,1.92,-6.43,2.9
0.866,0.82,-3.8,6.51
0.867,-1.77,-0.35,15.49
0.868,-6.32,0.75,20.01
0.869,-13.61,12.32,20.01
0.87,-7.06,3.69,7.49
0.871,-3.65,1.57,1.06
0.872,-3.22,2.98,1.45
0.873,-1.65,5.41,-4.67
0.874,-1.73,4.39,-6.28
0.875,-2.67,4.82,-2.2
0.876,-4.12,6.59,-2.79
0.877,-9.57,-5.26,15.18
0.878,-13.22,11.85,20.01
0.879,-8.12,-5.37,18.28
0.88,-5.41,-7.34,8.63
0.881,-2.51,-6.35,2.28
0.882,-1.37,-7.22,3.14
0.883,2.51,-5.92,-0.51
0.884,2.31,-6.28,3.45
0.885,0.51,-2.82,10.12
0.886,-2.16,-4.98,20.01
0.887,-11.73,7.73,20.01
0.888,-9.57,7.77,16.12
0.889,-4.63,3.26,3.77
0.89,-2.98,2.51,1.26
0.891,-1.26,3.92,-0.59
0.892,-1.02,4.63,-3.84
0.893,-2.24,3.37,-3.84
0.894,-2.43,5.92,-3.8
0.895,-7.53,0.39,6.75
0.896,-17.06,12.51,20.01
0.897,-10.9,1.02,19.97
0.898,-8.28,-6.9,11.3
0.899,-4.47,-5.14,6.2
0.9,-1.69,-4.75,2.28
0.901,0.24,-5.81,0.43
0.902,1.37,-5.57,0.86
0.903,1.37,-3.1,5.73
0.904,-1.73,-2.79,13.3
0.905,-6.63,0,20.01
0.906,-10.79,7.85,20.01
0.907,-7.34,5.1,9.92
0.908,-4.28,2.28,2.59
0.909,-1.69,3.61,-0.43
0.91,-1.02,4.82,-2.71
0.911,-1.06,3.88,-5.53
0.912,-2,5.02,-3.53
0.913,-7.1,7.22,1.57
0.914,-10,-1.8,15.57
0.915,-15.26,10.16,20.01
0.916,-9.77,-1.73,18.87
0.917,-6.39,-4.94,10.59
0.918,-1.96,-5.37,3.26
0.919,-0.75,-5.49,1.88
0.92,0.59,-5.73,1.14
0.921,2.55,-4.79,-0.04
0.922,0.82,-3.3,6.43
0.923,-2.2,-3.26,17.3
0.924,-9.61,2.12,20.01
0.925,-10,7.73,20.01
0.926,-6.28,2.24,5.65
0.927,-3.49,1.37,1.57
0.928,-1.65,4.43,-1.26
0.929,-0.9,4.67,-4.82
0.93,-2.55,3.84,-4.79
0.931,-2.28,5.57,-3.69
0.932,-5.96,7.06,0.04
0.933,-15.34,-5.81,20.01
0.934,-14.04,9.61,20.01
0.935,-7.69,-4.86,13.85
0.936,-6.32,-6.63,9.53
0.937,-3.8,-5.49,3.53
0.938,-2,-5.41,1.33
0.939,0.08,-6.12,1.02
0.94,1.14,-5.14,2.51
0.941,0.67,-3.14,6.2
0.942,-1.88,-5.88,17.57
0.943,-10.98,6.47,20.01
0.944,-9.69,6.47,18.08
0.945,-6.24,3.14,6.24
0.946,-3.02,0.82,0.94
0.947,-1.57,4.43,-1.18
0.948,-0.75,5.49,-3.14
0.949,0.75,5.65,-5.57
0.95,-0.27,6,-3.57
0.951,-6.47,5.96,2
0.952,-12.83,3.65,20.01
0.953,-14.08,6.43,20.01
0.954,-10.83,-0.71,19.85
0.955,-7.14,-5.02,9.73
0.956,-4.75,-5.1,4.82
0.957,-1.69,-4.9,2.59
0.958,0.94,-5.49,-0.78
0.959,1.02,-5.53,2.86
0.96,1.02,-3.3,6.9
0.961,-2.2,-2.86,19.14
0.962,-10.43,4.47,20.01
0.963,-9.3,7.45,19.61
0.964,-6.2,2.55,4.86
0.965,-3.45,2.47,2.59
0.966,-0.75,5.41,-1.22
0.967,-0.63,5.53,-4.79
0.968,-1.41,5.45,-4.08
0.969,-0.86,6.28,-3.26
0.97,-7.3,3.92,4.75
0.971,-11.73,1.18,20.01
0.972,-9.38,7.3,20.01
0.973,-8.9,-4.2,17.89
0.974,-6.9,-5.26,9.02
0.975,-2.82,-4.86,2.31
0.976,-1.41,-5.81,0.86
0.977,0.71,-5.22,-0.75
0.978,1.92,-5.45,-0.78
0.979,1.29,-4.86,5.65
0.98,-4.12,-4.2,20.01
0.981,-12.51,8.87,20.01
0.982,-9.73,6.51,17.53
0.983,-6.9,4.2,7.69
0.984,-2.9,1.77,1.84
0.985,-0.75,3.57,-1.8
0.986,-0.94,4.86,-2.9
0.987,-1.8,4.86,-4.79
0.988,-1.65,4.98,-3.84
0.989,-5.81,5.37,0.24
0.99,-11.06,0.75,20.01
0.991,-18.63,11.34,20.01
0.992,-10.04,-2.79,14.2
0.993,-7.02,-5.96,8.71
0.994,-3.96,-5.49,3.33
0.995,-1.14,-6.32,-1.06
0.996,0.43,-6.08,-1.06
0.997,1.84,-6.2,1.45
0.998,1.69,-5.02,5.92
0.999,-2.59,-6.24,20.01
1,-9.06,4.08,20.01
1.001,-10.36,6.55,20.01
1.002,-6.2,3.53,5.37
1.003,-2.82,3.45,1.49
1.004,-1.29,3.96,-1.61
1.005,-2.08,5.18,-2.86
1.006,-2.39,5.49,-4
1.007,-1.77,6.43,-4.31
1.008,-7.77,1.29,3.61
1.009,-15.57,7.02,20.01
1.01,-12.63,4.98,20.01
1.011,-10.43,-4.86,15.18
1.012,-7.41,-4.9,8.67
1.013,-2.47,-4.59,2.59
1.014,-0.35,-5.84,2.35
1.015,1.22,-5.14,2.24
1.016,2.47,-6,1.37
1.017,-0.16,-4.16,9.53
1.018,-4.51,-3.26,20.01
1.019,-12,6.9,20.01
1.02,-11.3,6.86,18.48
1.021,-7.3,3.69,5.88
1.022,-2.12,3.02,0.71
1.023,-0.63,5.3,-2.35
1.024,-2.16,4.98,-2.31
1.025,-2.12,4.63,-4.82
1.026,-1.45,5.53,-6.04
1.027,-8.67,4,3.73
1.028,-17.42,2.55,20.01
1.029,-13.38,3.88,20.01
1.03,-10.16,-2.98,16.16
1.031,-6.28,-4.98,7.92
1.032,-2.51,-5.77,1.1
1.033,-1.02,-5.61,-0.71
1.034,1.02,-5.06,-1.88
1.035,0.55,-4.98,2.59
1.036,-1.26,-4.12,9.14
1.037,-4.59,-6.39,20.01
1.038,-12.55,6.08,20.01
1.039,-11.57,5.84,18.55
1.04,-4.67,2.79,4
1.041,-2.75,2.9,1.26
1.042,-1.1,3.41,-1.41
1.043,0.04,4.9,-4.59
1.044,-0.08,4.16,-5.3
1.045,-1.14,5.69,-4
1.046,-7.3,8.2,0.12
1.047,-17.53,5.06,20.01
1.048,-17.18,9.1,20.01
1.049,-8.67,-3.14,11.26
1.05,-7.26,-5.92,8.59
1.051,-3.49,-4.47,4.39
1.052,-0.63,-5.22,-0.51
1.053,0.55,-5.73,-2
1.054,0.59,-5.45,-0.31
1.055,-1.14,-2.71,4.63
1.056,-5.3,-5.81,19.85
1.057,-15.65,9.18,20.01
1.058,-8.83,8.32,14.91
1.059,-4.39,0.67,1.18
1.06,-3.8,0.63,2.24
1.061,-0.86,5.61,-2.24
1.062,0.63,5.06,-7.34
1.063,-1.84,3.84,-4.94
1.064,-2.16,6.12,-3.65
1.065,-7.61,6.39,2.63
1.066,-20.01,7.14,20.01
1.067,-14.71,6.47,20.01
1.068,-8.59,-3.61,10.94
1.069,-7.1,-6.9,8.39
1.07,-2.51,-5.73,2.63
1.071,-0.43,-7.65,0.59
1.072,0.86,-6.51,0.59
1.073,1.69,-5.14,0.43
1.074,0.35,-2.47,5.96
1.075,-6.71,-3.73,20.01
1.076,-16.71,8.83,20.01
1.077,-9.69,6.63,13.26
1.078,-6.75,2.82,6.28
1.079,-3.53,1.84,2.39
1.08,-0.71,5.1,-1.69
1.081,-0.43,4.31,-4.31
1.082,-1.61,4.98,-4.35
1.083,-1.41,6.43,-4.79
1.084,-7.06,6.51,1.57
1.085,-17.77,5.06,20.01
1.086,-19.18,11.81,20.01
1.087,-10.08,-2.75,15.81
1.088,-9.02,-5.92,9.57
1.089,-4.43,-5.61,2.86
1.09,-1.73,-6.2,-0.47
1.091,0.08,-5.61,-1.22
1.092,0.75,-6,0.31
1.093,-0.2,-5.18,5.26
1.094,-5.45,-4.82,19.85
1.095,-16.83,6.55,20.01
1.096,-10.08,8,14.67
1.097,-5.1,3.49,3.18
1.098,-3.02,3.02,0.86
1.099,-0.71,4.75,-2.04
1.1,-0.71,5.06,-5.02
1.101,-1.96,3.65,-4.2
1.102,-2.2,6.32,-3.57
1.103,-9.34,6.67,3.92
1.104,-18.95,4.59,20.01
1.105,-15.42,6.04,20.01
1.106,-8.24,-4.35,9.38
1.107,-7.18,-6.2,7.41
1.108,-3.26,-5.37,1.65
1.109,-0.59,-5.69,-1.65
1.11,-0.16,-6,0.2
1.111,1.1,-4.94,1.49
1.112,-1.06,-5.3,7.92
1.113,-8.55,-4.2,20.01
1.114,-13.1,8.94,20.01
1.115,-8.83,6.04,10.87
1.116,-4.2,1.49,1.53
1.117,-1.57,2.75,-1.41
1.118,-0.51,5.02,-2.24
1.119,0.08,4.47,-5.53
1.12,-1.22,6.24,-4.82
1.121,-3.22,8.32,-2.43
1.122,-9.61,2.39,10.63
1.123,-20.01,16.16,20.01
1.124,-11.1,1.88,18.51
1.125,-7.88,-5.02,9.34
1.126,-5.26,-6.59,4.24
1.127,-3.02,-6.63,0.94
1.128,-0.31,-6.39,-0.86
1.129,0.67,-5.73,0.71
1.13,0.39,-4.35,4.75
1.131,-0.98,-5.88,10.75
1.132,-10.9,1.69,20.01
1.133,-12.24,8.63,20.01
1.134,-6.28,4.9,5.96
1.135,-3.3,1.69,1.41
1.136,-1.1,4.51,-1.45
1.137,-0.24,5.3,-5.92
1.138,-1.02,4.55,-6.28
1.139,-2.08,6.98,-2.59
1.14,-5.96,8.08,4.67
1.141,-13.69,-1.88,20.01
1.142,-14.2,11.53,20.01
1.143,-8.67,-3.92,13.49
1.144,-7.49,-6.59,8.32
1.145,-3.61,-6,2.35
1.146,-0.82,-6.71,-0.24
1.147,0.47,-6.04,-0.51
1.148,1.57,-5.49,1.33
1.149,1.02,-5.06,6.94
1.15,-4.43,-5.65,20.01
1.151,-14.16,7.65,20.01
1.152,-9.38,6.67,16.79
1.153,-4.71,3.22,3.61
1.154,-2.2,4.24,-0.35
1.155,-0.24,5.57,-3.65
1.156,-0.71,5.06,-3.26
1.157,-1.69,4.43,-3.57
1.158,-2.86,5.02,-0.67
1.159,-7.92,-0.47,8.32
1.16,-10.79,4.31,20.01
1.161,-14.32,2.31,20.01
1.162,-8.43,-5.84,13.06
1.163,-5.73,-6.28,6.83
1.164,-2,-6.39,0.31
1.165,-0.9,-5.61,0.51
1.166,0,-5.37,1.65
1.167,1.29,-4.98,2.71
1.168,-2.43,-3.49,13.34
1.169,-7.73,-1.53,20.01
1.17,-13.22,9.1,20.01
1.171,-10.28,7.77,15.02
1.172,-4.35,3.14,2.47
1.173,-1.57,4.71,-1.96
1.174,-0.55,4.2,-4.2
1.175,-1.1,4.35,-5.53
1.176,-1.77,5.49,-4.31
1.177,-6.08,7.41,1.41
1.178,-11.69,-0.94,17.61
1.179,-18.08,10.28,20.01
1.18,-10.63,-0.9,15.42
1.181,-8.32,-6.83,8.59
1.182,-3.57,-5.41,2.12
1.183,-1.8,-5.41,-0.39
1.184,-0.71,-4.75,-0.78
1.185,1.37,-5.02,-0.75
1.186,-0.31,-4.16,7.53
1.187,-3.65,-2.94,19.14
1.188,-11.69,10.24,20.01
1.189,-7.61,7.22,13.93
1.19,-5.61,2.86,5.96
1.191,-2.67,3.96,2.28
1.192,-0.27,5.61,-2.24
1.193,-0.2,4.55,-3.45
1.194,-0.67,4.98,-3.96
1.195,-1.53,7.49,-2.82
1.196,-8.67,2.24,7.88
1.197,-17.06,8.39,20.01
1.198,-16.99,6.94,20.01
1.199,-10.75,-2.12,10.9
1.2,-6.43,-5.41,5.69
1.201,-3.73,-5.22,2.39
1.202,-1.53,-5.92,0.04
1.203,-0.12,-4.94,0.98
1.204,0.55,-4.12,2.71
1.205,-2.75,-0.47,13.57
1.206,-9.45,2.63,20.01
1.207,-13.96,9.81,20.01
1.208,-7.88,6.86,9.02
1.209,-4.31,1.8,2.86
1.21,-1.41,3.73,-0.82
1.211,0.08,4.24,-2.75
1.212,0.59,2.9,-5.26
1.213,-0.27,4.71,-3.77
1.214,-1.22,7.41,-4.31
1.215,-6.98,2.35,2.71
1.216,-15.46,12.87,20.01
1.217,-19.97,11.85,20.01
1.218,-10.4,-3.45,11.73
1.219,-7.61,-5.3,7.96
1.22,-4.12,-6.67,3.65
1.221,-1.37,-5.77,-0.2
1.222,0.43,-5.57,-1.14
1.223,0.71,-4.67,1.41
1.224,-1.96,-4.16,8.51
1.225,-10.79,1.69,20.01
1.226,-16.67,13.73,20.01
1.227,-6.63,6.24,6.24
1.228,-4.35,2.31,1.84
1.229,-2.67,3.88,-0.2
1.23,-0.47,4.28,-3.77
1.231,0.04,2.98,-7.3
1.232,-0.67,1.37,-5.14
1.233,-1.41,6.08,-2.75
1.234,-9.22,3.77,7.41
1.235,-20.01,12.55,20.01
1.236,-14.55,8.24,19.46
1.237,-10.4,-4.08,10.71
1.238,-8.9,-5.26,7.18
1.239,-4.08,-5.22,0.71
1.24,-0.63,-5.41,-2.59
1.241,0.98,-5.69,-2.43
1.242,1.22,-5.84,0.43
1.243,-1.22,-4.59,6.63
1.244,-9.22,-3.02,20.01
1.245,-19.46,11.26,20.01
1.246,-8.75,7.06,9.69
1.247,-4.28,2.43,3.26
1.248,-2.94,3.65,1.57
1.249,-1.33,3.02,-2.55
1.25,-0.75,4.43,-4.79
1.251,-2.43,2.35,-3.1
1.252,-3.02,2.67,-4.71
1.253,-9.69,2.98,7.69
1.254,-18.75,13.61,20.01
1.255,-12.94,6.16,15.57
1.256,-10.43,-1.02,11.02
1.257,-7.61,-2.9,7.1
1.258,-5.14,-3.88,3.14
1.259,-3.37,-3.41,-0.04
1.26,-1.37,-4.47,-1.18
1.261,-0.59,-6.16,1.18
1.262,-3.06,-7.53,7.73
1.263,-8.47,-2.39,20.01
1.264,-13.49,11.81,20.01
1.265,-5.45,6.98,8.59
1.266,-5.61,4.51,5.1
1.267,-5.77,5.06,4.98
1.268,-4.28,3.73,1.26
1.269,-3.8,2.2,-1.18
1.27,-4.86,4.47,-1.45
1.271,-6.71,4.94,-0.98
1.272,-10.32,4.98,4.12
1.273,-12.55,9.73,13.38
1.274,-9.73,10.9,11.53
1.275,-8.12,4.63,7.37
1.276,-8.32,2.98,8.9
1.277,-6.39,0.27,5.49
1.278,-5.61,-1.84,5.61
1.279,-4.75,-2.12,5.26
1.28,-3.84,-2.9,5.22
1.281,-3.96,-3.3,6.35
1.282,-5.22,-2.35,8.24
1.283,-6.98,-1.73,10.79
1.284,-7.77,-0.67,11.73
1.285,-12.24,6.79,17.73
1.286,-9.85,6.55,12.47
1.287,-8.16,5.26,7.06
1.288,-7.69,5.33,7.26
1.289,-5.41,5.14,3.8
1.29,-4.35,2.79,1.61
1.291,-4.28,2.63,1.37
1.292,-4.59,2.43,1.84
1.293,-4.79,2.51,1.33
1.294,-5.84,2.86,2.12
1.295,-7.65,3.65,4.94
1.296,-7.88,3.57,5.18
1.297,-7.61,2.28,4.24
1.298,-8.28,3.14,7.45
1.299,-7.73,3.33,7.02
1.3,-8.16,1.73,7.85
1.301,-9.26,2.47,9.57
1.302,-8.28,1.53,7.69
1.303,-6.98,-0.08,6.12
1.304,-6.43,-0.82,5.33
1.305,-6.2,-0.9,5.3
1.306,-6.04,-0.67,5.14
1.307,-5.96,-0.55,5.49
1.308,-6.08,0.43,7.1
1.309,-6.35,1.61,7.77
1.31,-7.41,1.88,8.79
1.311,-8.32,2.35,8.94
1.312,-9.34,3.8,11.77
1.313,-7.96,4.51,9.85
1.314,-6.04,2.98,6.39
1.315,-4.63,1.18,4.12
1.316,-4.98,0.86,5.18
1.317,-5.92,1.45,7.37
1.318,-6.12,2.35,8.79
1.319,-4.94,2.28,6.39
1.32,-5.02,2.24,6.16
1.321,-4.9,2.43,5.77
1.322,-4.55,2.2,4.55
51.99641,-4.67,1.57,4.55
1.325,-5.06,1.41,4.98
1.326,-6.04,1.61,6.28
1.327,-6.94,1.41,7.53
1.328,-7.96,1.29,8
1.329,-8.24,1.29,8.28
1.33,-7.81,1.22,8
1.331,-7.1,0.55,7.3
