NAME:,running4,,
EXPERIMENT TIME:,05/06/2023 19:30,,
ACTIVITY TYPE:,Running,,
COUNT OF ACTUAL STEPS:,130,,
,,,
Time [sec],ACC X,ACC Y,ACC Z
0.001,-2,-3.26,8.36
0.002,-2.12,-3.73,8.12
0.003,-2.39,-3.96,7.85
0.004,-1.96,-4.47,8.39
0.005,-2.08,-3.88,8.55
0.006,-1.96,-3.96,8.63
0.007,-2.04,-3.53,8.39
0.008,-2.35,-3.14,7.81
0.009,-2.51,-3.33,7.41
0.01,-2.43,-3.26,7.85
0.011,-2.28,-3.3,7.81
0.012,-1.8,-3.73,7.88
0.013,-1.61,-3.65,8.36
0.014,-1.41,-3.77,8.2
0.015,-1.1,-3.84,7.96
0.016,-1.37,-3.69,7.65
0.017,-1.41,-3.45,8.04
0.018,-1.69,-3.41,8.04
0.019,-1.61,-3.57,8.36
0.02,-1.02,-3.45,8.55
0.021,-0.98,-2.82,9.02
0.022,-1.8,-4.24,9.77
0.023,-0.63,-3.49,12.36
0.024,-2.04,-0.2,10.83
0.025,-0.71,-4,8.43
0.026,-0.12,-3.8,8.28
0.027,-0.9,-2.55,8.39
0.028,-1.37,-2.86,8.2
0.029,-1.45,-2.67,7.3
0.03,-0.78,-2.47,5.96
0.031,0.24,-3.65,5.84
0.032,-0.86,-1.96,5.49
0.033,-0.82,-3.1,5.69
0.034,-0.86,-2.9,7.57
0.035,-2.43,-4.86,13.34
0.036,-1.77,-5.41,17.3
0.037,-3.69,-4.51,14.59
0.038,-2.75,-3.88,11.92
0.039,-1.26,-3.26,9.53
0.04,-1.22,-1.33,6.39
0.041,0.35,-1.41,3.41
0.042,0.39,-1.14,2.2
0.043,1.26,-0.08,3.26
0.044,0.86,0.51,3.61
0.045,1.53,-1.1,5.3
0.046,0.59,-4.82,10
0.047,1.92,-6.08,16.75
0.048,-0.31,-2.12,15.77
0.049,0.86,-4.31,12.47
0.05,-0.86,-4.86,9.3
0.051,-0.9,-3.14,5.73
0.052,-0.82,-4.67,3.06
0.053,-2.51,-2.98,4.16
0.054,-1.96,-3.02,5.02
0.055,-2.79,-3.37,6.35
0.056,-2.2,-3.57,13.73
0.057,-1.22,-7.26,15.65
0.058,-2.47,-2.55,14.75
0.059,0.35,-1.22,12.36
0.06,0.9,-2.31,9.41
0.061,-1.26,0.86,5.65
0.062,1.49,0.2,4.67
0.063,2.39,0.55,4.39
0.064,1.45,0.08,3.92
0.065,1.84,-1.14,7.1
0.066,0.35,-6.08,10.16
0.067,0.24,-8.94,14.4
0.068,0.86,-2.63,14.75
0.069,-0.94,-5.81,6.9
0.07,-0.82,-7.41,4.63
0.071,-1.96,-1.53,4.98
0.072,-0.9,-5.14,4.04
0.073,-3.14,-1.84,5.02
0.074,-2.24,-1.61,6.24
0.075,-2.71,-4.79,10.28
0.076,-0.94,-8.39,16
0.077,-2.94,-4.67,15.3
0.078,-0.98,-1.02,9.49
0.079,-0.63,-3.14,6.04
0.08,0.16,1.41,7.37
0.081,0.82,0.82,5.92
0.082,2.51,-0.63,4.2
0.083,1.84,-1.22,4.39
0.084,2.16,0.55,7.81
0.085,0.86,-9.3,11.69
0.086,1.96,-7.81,14.75
0.087,-0.86,-1.84,12.67
0.088,0.16,-8.12,8.08
0.089,-0.78,-3.69,8.63
0.09,-1.02,-2.71,6.55
0.091,-1.22,-4.98,2.47
0.092,-1.73,-4.31,2.82
0.093,-2.71,-2.75,6.08
0.094,-2.67,-3.22,8.28
0.095,-4.31,-9.34,13.49
0.096,-0.31,-5.88,19.73
0.097,-3.49,-0.67,13.22
0.098,0.86,-4.79,7.73
0.099,-0.51,0.47,8.32
0.1,0.16,1.57,7.41
0.101,2.2,0.43,4.82
0.102,2.59,-0.71,3.37
0.103,1.96,0.55,3.53
0.104,2.39,-1.69,7.14
0.105,2,-7.41,11.06
0.106,0.75,-9.06,16.16
0.107,0.04,-2.24,13.38
0.108,-0.75,-7.57,5.18
0.109,1.1,-5.33,6.59
0.11,0.2,0.31,7.22
0.111,-2.31,-5.14,1.69
0.112,-3.02,-3.69,2.55
0.113,-4.2,-2.2,4.71
0.114,-2.67,-4.71,8.47
0.115,-3.61,-8.71,16.91
0.116,-0.94,-8.79,18.4
0.117,-1.53,-1.73,11.22
0.118,0.08,-4.9,6.39
0.119,0.47,-2.28,7.92
0.12,-0.82,1.53,7.45
0.121,2.79,0.35,4.86
0.122,2.47,-0.08,3.53
0.123,1.02,0.43,3.8
0.124,3.02,-2.55,6.24
0.125,2.24,-12.28,14.79
0.126,0,-2.04,16.48
0.127,1.1,-6.67,8.24
0.001,0.98,-9.06,5.18
0.002,-0.71,-2.79,6.04
0.003,-0.75,-2.79,2.67
0.004,-1.88,-4.63,2.16
0.005,-4.2,-2.51,4.2
0.006,-1.96,-3.3,9.38
0.007,-4.31,-10.83,16.87
0.008,-2.82,-5.73,19.06
0.009,-3.73,-1.69,10.67
0.01,0.9,-4.98,8.55
0.011,0.67,-2,7.73
0.012,-0.39,1.65,5.88
0.013,3.26,-1.26,6.2
0.014,1.45,-0.27,4.39
0.015,1.02,-1.57,4.12
0.016,-0.12,-0.55,7.18
0.017,-0.12,-12.83,14.28
0.018,-4.28,2,15.22
0.019,-1.29,-5.26,7.26
0.02,0.51,-9.38,4.79
0.021,-3.26,1.41,7.85
0.022,-1.88,-1.57,3.45
0.023,-1.29,-6.39,1.65
0.024,-3.33,-1.88,6.32
0.025,-1.33,-3.3,8.47
0.026,-4.63,-10.79,15.93
0.027,-3.53,-3.49,18.4
0.028,-3.06,-1.1,12.91
0.029,-0.9,-5.02,7.77
0.03,0.04,0.24,7.3
0.031,0.98,0.9,4.43
0.032,2.63,1.18,3.26
0.033,1.69,-0.55,2.2
0.034,4.04,-1.26,6.63
0.035,0.67,0.12,7.88
0.036,3.3,-11.14,16.32
0.037,-0.43,3.26,18.32
0.038,0.39,-10.79,8.36
0.039,0.63,-10.04,4.51
0.04,-2.28,0,6.71
0.041,2.94,-5.06,4.59
0.042,-3.61,-3.33,2.75
0.043,-2.51,-3.22,5.22
0.044,0.35,-5.41,9.26
0.045,-3.33,-7.77,17.69
0.046,-1.45,-6.9,18.24
0.047,-5.73,-5.06,13.34
0.048,0.82,-6.12,11.81
0.049,1.26,-1.14,9.96
0.05,-2.2,1.61,5.45
0.051,0.31,0.43,3.33
0.052,-0.59,1.22,2.12
0.053,2.35,0.08,3.06
0.054,2.35,-1.49,4.59
0.055,-0.12,-4.75,8.24
0.056,0.86,-9.18,14.87
0.057,-2.35,-0.2,12.59
0.058,1.41,-9.65,7.3
0.059,2.82,-10,8.63
0.06,-2.2,2.86,9.89
0.061,-1.26,-3.41,4.75
0.062,-0.71,-3.1,2.94
0.063,-2.59,-2.08,2.28
0.064,-2.51,-4.43,3.45
0.065,-1.96,-3.45,9.02
0.066,-5.92,-9.81,13.49
0.067,-2.82,-5.81,17.14
0.068,-1.14,-3.65,11.02
0.069,1.06,-5.49,9.45
0.07,-0.31,-0.08,8.12
0.071,-0.04,0.94,5.53
0.072,2.98,0.12,3.33
0.073,0.86,-0.63,1.73
0.074,1.73,0.75,3.96
0.075,2.47,-3.18,7.22
0.076,1.02,-10.32,15.69
0.077,-0.16,0.47,17.57
0.078,0.39,-5.45,10
0.079,0.2,-9.3,4.35
0.08,1.33,-3.3,6.63
0.081,0.24,-2.08,5.22
0.082,-1.49,-4.31,3.65
0.083,-2.94,-1.45,5.49
0.084,-1.8,-4.71,8.59
0.085,-3.26,-8.12,13.1
0.086,-2.35,-5.77,16.75
0.087,-2.24,-4.67,14.79
0.088,1.02,-3.14,10.16
0.089,-0.75,-1.1,7.1
0.09,-0.78,0.67,5.18
0.091,1.22,1.92,4.55
0.092,1.41,-1.69,3.26
0.093,1.26,-0.51,4.79
0.094,1.8,1.45,8.16
0.095,-0.2,-10.59,11.34
0.096,0.63,-7.41,14.83
0.097,-0.63,-1.65,12.32
0.098,0.9,-5.92,5.92
0.099,2.47,-7.18,4.55
0.1,0.71,2.63,8.36
0.101,-0.98,-3.1,4.39
0.102,-3.77,-4.47,3.8
0.103,-2.04,-2.31,8.75
0.104,-3.22,-7.34,10.36
0.105,-4.04,-9.18,18.67
0.106,-4.47,-1.14,16.87
0.107,-2.55,1.57,9.65
0.108,2.79,-3.8,5.22
0.109,-0.24,0.35,5.84
0.11,1.06,1.53,5.18
0.111,1.69,1.02,4
0.112,0.75,1.02,3.84
0.113,2.12,-0.82,6.79
0.114,-1.22,-9.81,12.94
0.115,0,-1.33,19.81
0.116,-0.59,-4.67,11.85
0.117,1.1,-8.94,6.43
0.118,-0.86,-5.06,4.39
0.119,-0.27,-1.61,5.84
0.12,-2,-4.98,3.33
0.121,-3.3,-1.88,4.82
0.122,-2.43,-3.69,6.16
0.123,-3.1,-4.35,8.87
0.124,-4.24,-7.37,17.5
0.125,-1.84,-4.24,17.73
0.126,-2.39,-2.82,11.61
0.127,0.31,-3.92,5.41
0.128,-0.98,-2.63,2.82
0.129,1.73,0.82,6
0.13,1.06,0.51,4.67
0.131,1.14,0.24,3.92
0.132,1.65,0.2,6.04
0.133,0.94,-0.75,9.38
0.134,0.35,-9.26,16.67
0.135,-3.53,2.55,18.95
0.136,-0.12,-2.98,13.06
0.137,0.94,-7.81,5.18
0.138,1.29,-5.77,5.84
0.139,0.35,0.16,6.83
0.14,-1.26,-5.18,2.79
0.141,-2.51,-2.51,3.14
0.142,-2.55,-2.12,6.28
0.143,-1.73,-4.59,10.24
0.144,-3.61,-8.28,13.77
0.145,-5.06,-4.12,15.49
0.146,-2.82,-1.69,11.34
0.147,0.39,-3.14,9.06
0.148,-1.1,1.45,5.77
0.149,1.92,-0.31,4.35
0.15,2.59,-0.9,3.22
0.151,2.24,-0.2,4.98
0.152,0.55,-0.94,5.49
0.153,1.33,-2.75,8.67
0.154,-0.9,-10.87,13.53
0.155,-2.31,-0.12,17.42
0.156,0.55,-2.55,8.63
0.157,1.1,-6.79,3.73
0.158,1.45,-4.24,4.55
0.159,-0.04,-0.55,6.63
0.16,-2.67,-4.55,3.73
0.161,-3.18,-1.49,7.69
0.162,-3.22,-4.04,10.4
0.163,-3.8,-3.41,15.06
0.164,-4.43,-7.06,13.96
0.165,-1.41,-2.08,11.57
0.166,-1.49,-3.1,8.08
0.167,0.2,-0.39,6.71
0.168,1.84,0.39,5.3
0.169,2.35,0.94,3.49
0.17,0.9,2.98,2.86
0.171,2.31,1.49,3.73
0.172,1.57,-2.24,6.24
0.173,3.18,-7.69,15.93
0.174,0.35,0.63,19.65
0.175,3.02,-7.88,17.3
0.176,0.08,-5.77,15.02
0.177,-4.35,-1.1,7.88
0.178,-3.41,-3.96,2.63
0.179,-3.84,-5.1,-0.35
0.18,-6.43,-2.28,1.02
0.181,-3.1,-0.04,4.9
0.182,-4.9,-4.43,8.32
0.183,-3.65,-6.51,15.3
0.184,0,1.02,17.69
0.185,0.67,-0.75,12.83
0.186,2.08,-1.53,7.85
0.187,2.82,2.31,5.53
0.188,3.33,1.88,4
0.189,4.51,-0.35,3.49
0.19,2.08,0.9,5.18
0.191,3.61,-1.57,7.53
0.192,3.53,-11.14,19.73
0.193,0.16,11.41,20.01
0.194,-0.78,-3.14,12.12
0.195,1.02,-7.61,8.04
0.196,-1.49,-1.88,7.02
0.197,-2.2,-2.75,2.55
0.198,-3.53,-4.63,0.86
0.199,-3.88,-3.49,0.86
0.2,-3.06,-1.69,5.22
0.201,-3.96,-6.2,10.32
0.202,-2,-6.71,19.5
0.203,2.67,-5.06,18.83
0.204,0.51,2.24,10.67
0.205,-0.63,-2.51,3.92
0.206,1.45,0.35,5.96
0.207,0.27,4.86,4.82
0.208,2.51,0.59,2.71
0.209,3.3,-0.31,1.65
0.21,1.65,2.55,6.67
0.211,4.16,-13.14,15.02
0.212,0.2,1.22,20.01
0.213,-0.47,-5.06,17.46
0.214,2.28,-8.9,12.91
0.215,-3.1,-1.73,8.12
0.216,-2.16,-4,2.67
0.217,-4.2,-6.04,-1.69
0.218,-5.33,-1.84,0.86
0.219,-3.41,-0.59,3.61
0.22,-4.12,-4.75,5.45
0.221,-5.65,-7.18,12.94
0.222,2.35,-4.16,18.12
0.223,-2.55,-2.94,13.14
0.224,1.33,-1.92,13.3
0.225,-0.12,3.57,9.96
0.226,0.82,1.37,4.86
0.227,2.51,2.47,2.55
0.228,1.88,-0.24,0.94
0.229,2.43,-0.67,0.63
0.23,0.82,-10.36,10.51
0.231,2.63,-1.92,20.01
0.232,-0.27,-3.69,20.01
0.233,0.24,-8.36,12.79
0.234,-2.35,-1.88,5.77
0.235,1.57,-2.98,0.2
0.236,-1.22,-2.51,-3.96
0.237,-2.98,-0.31,-2.47
0.238,-1.22,-1.77,2.16
0.239,-3.33,-5.26,7.77
0.24,-5.1,-3.22,10.63
0.241,-3.57,-7.92,7.57
0.242,-0.24,-0.16,11.65
0.243,3.26,0.98,10.55
0.244,-1.41,0.67,7.81
0.245,4.12,2.51,10.28
0.246,1.41,2.43,6.08
0.247,2.24,-2.47,4.16
0.248,4.63,-0.67,9.3
0.249,3.8,-4,20.01
0.25,2.43,1.84,20.01
0.251,4.9,-3.69,19.85
0.252,0.98,-5.22,13.45
0.253,-2,-3.53,7.3
0.254,1.69,-2.55,2.71
0.255,-1.61,-2.39,-2.82
0.256,-2.28,-1.8,-1.57
0.257,-2.2,-2.82,1.53
0.258,-4.47,-4.67,5.61
0.259,-1.29,-6.67,12.12
0.26,-1.33,-5.49,14.59
0.261,-0.82,-0.35,12.83
0.262,1.73,-2,9.81
0.263,0.31,2.08,5.3
0.264,2.47,2.2,3.73
0.265,3.37,2.12,3.02
0.266,1.61,-0.43,2.04
0.267,4.55,-0.67,6.51
0.268,4.67,-4.79,9.57
0.269,5.49,-11.57,19.26
0.27,0.12,6.43,20.01
0.271,-0.04,-4.94,10.28
0.272,0.71,-7.69,4.67
0.273,0.78,-4.2,4.35
0.274,-1.18,-2,3.1
0.275,-3.26,-4.04,1.8
0.276,-2.79,-2.59,4.63
0.277,-2.04,-2.43,7.96
0.278,-1.88,-13.57,15.93
0.279,-1.84,0.59,20.01
0.28,-1.06,0.16,11.18
0.281,2.24,-2.16,7.18
0.282,1.49,-1.88,3.06
0.283,3.65,4.94,6.04
0.284,3.3,1.69,3.41
0.285,2.51,0.75,2.86
0.286,3.61,-1.61,5.96
0.287,2.31,-6.35,13.06
0.288,3.3,-2.63,18.91
0.289,1.57,-2.63,15.22
0.29,3.22,-10.28,8.28
0.291,1.69,-6.98,5.22
0.292,-1.26,-1.33,5.41
0.293,-1.61,-3.33,1.96
0.294,-3.02,-3.49,1.18
0.295,-2.79,-3.88,3.57
0.296,-2.16,-4.9,8.28
0.297,0.55,-10.87,18.32
0.298,1.84,-0.47,20.01
0.299,0.63,3.1,14.55
0.3,2.59,-2.28,5.61
0.301,-0.47,-1.29,1.69
0.302,2.2,4.79,4.31
0.303,3.77,1.92,2.82
0.304,2.35,0.78,1.88
0.305,3.33,0.27,7.14
0.306,2.31,-7.57,15.02
0.307,2.43,-4.9,19.22
0.308,0.51,2.12,15.69
0.309,3.14,-7.77,9.34
0.31,0.47,-7.65,4
0.311,-0.86,-1.49,4.82
0.312,-0.55,-3.02,2.08
0.313,-2.28,-4.43,1.73
0.314,-2.86,-3.84,4.86
0.315,-3.61,-5.02,8.75
0.316,-2.35,-10.63,14.12
0.317,-0.86,-4.31,19.73
0.318,-1.26,2.04,14.36
0.319,2.47,-4.39,6.83
0.32,0.08,-0.16,4.51
0.321,1.8,3.33,5.3
0.322,2.59,1.49,3.96
0.323,2.98,-0.35,3.84
0.324,4.43,-1.1,8.47
0.325,1.45,-6.83,14.87
0.326,2.35,-1.49,18.28
0.327,0.94,0.47,15.06
0.328,1.49,-9.96,8.51
0.329,-0.24,-4.86,6.04
0.33,-1.92,-0.78,3.92
0.331,-0.9,-4.24,1.26
0.332,-1.45,-4.59,1.41
0.333,-2.35,-2.16,5.33
0.334,-2.9,-4.35,7.81
0.335,-3.14,-11.02,13.93
0.336,-0.94,-2.86,20.01
0.337,-0.71,1.77,14.4
0.338,0.27,-2.51,5.3
0.339,0.04,0.35,4.39
0.34,3.18,2.94,6.59
0.341,2.16,1.37,3.22
0.342,3.1,-0.04,4.55
0.343,3.73,0,8.63
0.344,0.55,-5.92,13.22
0.345,4.31,-8.12,17.85
0.346,-0.55,4.16,17.18
0.347,0.04,-7.65,7.73
0.348,1.61,-8.75,5.02
0.349,0.55,-1.96,6.12
0.35,-1.33,-1.77,3.14
0.351,-1.88,-4.82,0.67
0.352,-2.04,-2.39,5.49
0.353,-1.8,-2.28,7.88
0.354,-2.98,-11.41,12.87
0.355,0.12,-6.39,18.83
0.356,-1.14,3.8,14.55
0.357,2.47,-3.49,7.53
0.358,2.98,-2.9,4
0.359,0.47,2.67,4.39
0.36,2.2,2,2.79
0.361,2.04,0.31,2.35
0.362,2.86,-0.31,3.96
0.363,3.49,-1.29,7.85
0.364,0.27,-13.34,13.45
0.365,8.43,-7.37,20.01
0.366,-3.3,6.75,12.43
0.367,1.29,-10.2,3.88
0.368,2,-9.3,1.57
0.369,1.06,-2.79,4.24
0.37,-2.59,-2.31,1.84
0.371,-3.3,-4.63,0.39
0.372,-2,-1.73,4.67
0.373,-1.73,-5.37,9.45
0.374,-2.98,-11.81,16.2
0.375,4.04,-6.79,20.01
0.376,-2.2,3.18,11.3
0.377,0.63,-5.06,5.37
0.378,2.63,-0.75,6.32
0.379,2.04,2.35,4.39
0.38,3.26,-1.1,1.77
0.381,3.8,-1.14,3.41
0.382,1.88,-1.73,8.51
0.383,3.57,-11.92,17.26
0.384,0.24,4.82,20.01
0.385,4.51,-6.55,11.3
0.386,4.28,-10.12,3.57
0.387,-0.35,-1.65,5.37
0.388,-1.41,-0.12,4.82
0.389,-1.37,-5.18,2.28
0.39,-3.45,-5.92,2.24
0.391,-1.77,-1.88,8.24
0.392,-2.59,-8.2,10.87
0.393,0.67,-8.36,19.89
0.394,-0.86,-3.57,19.34
0.395,1.73,-1.06,10.63
0.396,2.24,-2.71,3.26
0.397,-0.35,2.2,4
0.398,2.82,2.24,3.06
0.399,1.49,0,2.67
0.4,3.14,-0.9,3.3
0.401,3.77,0.2,6.24
0.402,2.04,-9.41,14.2
0.403,4.43,-3.3,19.93
0.404,-1.1,-2.75,15.06
0.405,5.1,-10.67,10.59
0.406,1.18,-6.71,5.96
0.407,-2.98,-2.39,3.02
0.408,-0.51,-5.45,1.22
0.409,-2.82,-3.8,0.98
0.41,-1.96,-3.22,4.98
0.411,-3.8,-8.83,12.2
0.412,0.08,-4.71,20.01
0.413,0.94,-6.24,18.79
0.414,0.12,-1.45,12.47
0.415,0.94,-2.51,6.39
0.416,0.31,0.9,4.12
0.417,1.96,2.16,3.26
0.418,2.28,2.2,2.43
0.419,2.43,0.75,1.69
0.42,3.92,-0.27,5.88
0.421,3.02,-6.04,12.12
0.422,7.45,-12.59,20.01
0.423,2.24,1.57,20.01
0.424,0.47,-7.85,8.71
0.425,0.31,-6.04,2.43
0.426,-1.26,-2.79,1.02
0.427,-1.37,-3.3,0.2
0.428,-1.77,-3.1,1.14
0.429,-3.49,-2.98,4.43
0.43,-1.84,-5.18,8.08
0.431,-2,-10.12,18.48
0.432,-1.1,-7.34,20.01
0.433,-0.04,0,15.38
0.434,1.65,-2.94,7.02
0.435,-0.9,-0.55,2.63
0.436,1.92,3.37,3.37
0.437,3.45,-0.59,2.71
0.438,3.84,0.94,3.45
0.439,2.51,1.06,6.12
0.44,-0.04,-10.24,13.06
0.441,6.47,-3.8,20.01
0.442,0.75,0.82,20.01
0.443,1.06,-8.94,8.36
0.444,-1.18,-5.45,2.08
0.445,-1.88,-3.8,3.49
0.446,0.47,-3.73,4.67
0.447,-3.26,-4.04,2.08
0.448,-2.24,-5.77,4.35
0.449,-2.12,-4.79,15.53
0.45,-1.53,-10.47,20.01
0.451,-0.51,-4.86,20.01
0.452,0.63,-1.14,12.79
0.453,1.1,-0.47,6.2
0.454,2.39,2.82,3.8
0.455,2.9,2.04,2.12
0.456,3.22,-0.9,1.33
0.457,2.16,-0.39,2.67
0.458,0.08,1.53,4.16
0.459,1.41,-1.61,7.37
0.46,4.12,-11.06,14.55
0.461,1.06,-2.43,16.4
0.462,0.31,-3.96,11.61
0.463,3.73,-8.39,9.61
0.464,-0.94,-3.8,6.55
0.465,-3.18,-3.06,3.73
0.466,-1.29,-5.73,1.41
0.467,-3.26,-4.63,2
0.468,-2.16,-2.43,7.49
0.469,-4.28,-11.34,13.1
0.47,-2,-12.16,18.2
0.471,-0.59,-3.26,17.69
0.472,-2.28,-1.69,7.26
0.473,0.59,-3.41,2.43
0.474,1.06,1.96,2.94
0.475,3.45,2.55,3.26
0.476,3.77,1.1,2.9
0.477,1.96,1.96,5.1
0.478,3.84,1.06,8.39
0.479,1.41,-12.28,12.79
0.48,2.51,-3.84,19.02
0.481,1.29,-2.35,17.5
0.482,2.63,-7.81,10.94
0.483,-0.35,-5.14,5.53
0.484,-0.08,-3.84,3.73
0.485,-1.73,-6.94,0.9
0.486,-5.81,-3.14,1.49
0.487,-2.2,-3.57,5.88
0.488,-2.63,-8.12,12.08
0.489,-0.2,-7.37,17.77
0.49,-0.51,1.33,15.89
0.491,1.18,-2.67,8.79
0.492,-0.04,-0.63,3.57
0.493,1.02,3.69,6.24
0.494,1.88,1.49,4.63
0.495,2.28,1.06,4.63
0.496,3.33,-0.82,6.04
0.497,4.51,-1.57,7.57
0.498,3.88,-10.51,15.73
0.499,1.57,1.37,19.73
0.5,2.82,-4.86,14.83
0.501,2.47,-8.39,10.16
0.502,0.63,-2.75,7.65
0.503,1.22,-4.2,2.75
0.504,1.53,-5.06,0.31
0.505,-2.28,-6.2,-1.1
0.506,-2.75,-3.14,6.12
0.507,-7.49,-5.1,6.83
0.508,-5.37,-12.24,16.44
0.509,1.06,-5.26,20.01
0.51,-1.49,-0.78,13.42
0.511,0.86,-3.77,5.57
0.512,0.82,1.33,3.84
0.513,0.47,3.33,3.22
0.514,2.75,2.94,2.39
0.515,3.96,0.04,2.59
0.516,1.8,3.14,6.55
0.517,5.41,-6.16,7.96
0.518,5.84,-15.02,14.08
0.519,-1.77,7.85,20.01
0.52,2.75,-6.28,13.38
0.521,0.35,-7.85,3.3
0.522,-2.12,-3.41,3.22
0.523,-0.27,-3.26,5.61
0.524,-3.1,-4.71,2.51
0.525,-5.14,-3.96,3.96
0.526,-2.63,-5.1,9.02
0.527,-4.12,-8.98,15.46
0.528,1.26,-7.61,20.01
0.529,0.27,-1.45,18.59
0.53,1.14,-2.28,8.75
0.531,1.37,-3.14,4.24
0.532,1.29,1.84,2.79
0.533,3.92,2.67,1.8
0.534,3.02,0.35,0.35
0.535,2.67,1.22,2.04
0.536,1.37,1.65,5.26
0.537,1.57,-13.69,10.87
0.538,3.92,-7.85,18.2
0.539,1.61,-4.75,15.77
0.54,3.49,-9.38,8.9
0.541,0.27,-8.08,4.47
0.542,-3.73,-5.84,1.84
0.543,-1.33,-7.26,3.18
0.544,-3.3,-3.18,3.77
0.545,-2.28,-3.73,5.1
0.546,-2.67,-6.67,8.67
0.547,-2.98,-12.08,14.91
0.548,2.55,-8.55,17.93
0.549,0.27,-0.86,13.38
0.55,-0.04,-2.47,5.22
0.551,0.75,-0.82,2.04
0.552,3.49,2.71,3.02
0.553,5.61,0.9,2.59
0.554,4.12,-0.08,4.08
0.555,-0.24,-3.26,5.84
0.556,2.31,-12.28,14.4
0.557,4.71,-3.49,19.77
0.558,1.88,-8.04,10.94
0.559,2.39,-8.71,6.43
0.56,0.9,-4.59,4.51
0.561,-1.96,-4.39,1.45
0.562,-2.51,-6.32,1.73
0.563,-3.69,-3.61,4.47
0.564,-3.57,-2.94,6.86
0.565,-4.12,-11.65,12.91
0.566,1.33,-11.26,19.97
0.567,0.78,-4.51,17.22
0.568,1.88,-3.84,7.92
0.569,1.26,-1.61,4
0.57,0.63,2.31,3.22
0.571,3.65,3.57,2.43
0.572,3.26,0.2,0.39
0.573,2.59,1.61,2.75
0.574,3.37,-2.2,6.83
0.575,3.77,-16.28,17.1
0.576,4.16,1.1,20.01
0.577,2.75,-7.37,14.55
0.578,3.8,-9.26,6.59
0.579,0,-5.37,3.26
0.58,-1.73,-2.08,2.47
0.581,-0.51,-4.47,1.14
0.582,-2.63,-4.08,1.57
0.583,-1.53,-5.14,5.77
0.584,-2.75,-6.9,9.96
0.585,-0.35,-13.02,17.89
0.586,1.14,-8.67,16
0.587,-1.53,-1.33,8.83
0.588,0.12,-3.49,5.96
0.589,0.71,1.26,4.43
0.59,1.8,3.3,1.57
0.591,4.43,1.41,0.86
0.592,2.98,1.53,0.63
0.593,1.61,3.8,2.79
0.594,6.43,-4.94,5.92
0.595,8.79,-17.1,20.01
0.596,2.9,1.57,20.01
0.597,-1.14,-7.77,12.36
0.598,1.8,-10,4.08
0.599,-1.26,-4.12,2.39
0.6,-1.77,-4.51,0.12
0.601,-3.37,-3.73,0.27
0.602,-3.02,-3.41,2.31
0.603,-3.37,-4.28,6.04
0.604,-3.77,-10.28,14.47
0.605,1.49,-10.71,20.01
0.606,1.37,-1.1,13.93
0.607,1.26,-3.49,6.24
0.608,1.53,-0.9,4.59
0.609,2.82,4.04,5.57
0.61,2.55,3.18,3.45
0.611,3.92,0.51,1.14
0.612,3.22,0.78,1.73
0.613,5.88,-1.14,4.24
0.614,4.98,-11.45,11.06
0.615,6.79,-5.73,20.01
0.616,3.02,0.78,20.01
0.617,3.18,-12.32,8.83
0.618,1.14,-5.65,5.92
0.619,-0.71,-4.79,1.53
0.62,-1.53,-6.94,-0.86
0.621,-4.08,-4.86,0.24
0.622,-2.75,-3.84,7.96
0.623,-4.43,-11.34,12.16
0.624,1.45,-8.04,19.97
0.625,1.92,-2.75,17.81
0.626,2.39,-1.26,9.77
0.627,2.47,-2.35,3.53
0.628,1.26,3.02,2.47
0.629,2.08,2.28,1.33
0.63,2.35,1.88,0.43
0.631,3.1,1.49,1.49
0.632,5.57,-1.33,4.63
0.633,5.88,-13.73,13.81
0.634,7.49,-1.45,20.01
0.635,3.73,-2.2,20.01
0.636,3.18,-9.69,12.63
0.637,-0.82,-3.18,7.57
0.638,-2.24,-5.18,1.41
0.639,-4.2,-4.47,-0.24
0.64,-4.31,-5.22,0.2
0.641,-3.18,-4.94,5.33
0.642,-5.1,-10,12.63
0.643,-2.04,-6.63,20.01
0.644,2.9,-6.28,16.4
0.645,0.9,-3.65,6.59
0.646,0.08,-2.55,2.55
0.647,-0.35,3.18,1.41
0.648,2.75,3.26,0.86
0.649,2.94,0.82,0.35
0.65,1.88,3.84,1.53
0.651,3.14,1.29,4.75
0.652,4.43,-12.59,15.77
0.653,2.86,4.67,20.01
0.654,4.28,-4.82,20.01
0.655,5.1,-11.14,12.87
0.656,-0.08,-4.16,9.73
0.657,-2.47,-5.02,2.79
0.658,-4.04,-5.18,-0.35
0.659,-5.22,-3.77,-0.2
0.66,-3.73,-3.73,3.22
0.661,-4.16,-6.63,10.87
0.662,-2.2,-8.75,20.01
0.663,1.73,-7.02,20.01
0.664,1.49,-1.18,10.43
0.665,1.29,-3.77,3.92
0.666,0.04,0.98,1.29
0.667,2.79,2.2,0.86
0.668,2.82,1.92,0.71
0.669,3.33,1.92,1.22
0.67,4.39,-1.06,3.88
0.671,1.88,-6.08,8.36
0.672,7.53,-12.63,20.01
0.673,1.96,1.96,20.01
0.674,4.31,-9.18,14.79
0.675,2.71,-9.41,6.98
0.676,-2.28,-2.82,4.79
0.677,-2.39,-5.06,1.41
0.678,-3.1,-4.9,1.26
0.679,-4.55,-3.65,3.02
0.68,-3.53,-3.49,7.14
0.681,-4.43,-13.34,15.53
0.682,0.51,-8.08,20.01
0.683,0.47,-0.59,15.65
0.684,0.59,-2.55,6.79
0.685,1.1,-0.04,2.39
0.686,3.18,1.65,1.73
0.687,5.26,1.1,1.61
0.688,3.33,2.16,1.18
0.689,2.04,3.02,2.71
0.69,4.59,-4,6.47
0.691,2.75,-15.69,17.14
0.692,1.26,-2.04,20.01
0.693,1.96,-5.96,18.01
0.694,1.84,-10.63,5.33
0.695,-2.75,-2.51,2.55
0.696,-2.04,-3.37,2.2
0.697,-2.16,-5.02,1.73
0.698,-4.2,-4.63,2.79
0.699,-2.67,-3.65,7.3
0.7,-4.9,-12.71,12.87
0.701,0.27,-7.37,20.01
0.702,0.67,-2.67,18.44
0.703,-1.18,-1.77,9.73
0.704,0,-3.69,2.86
0.705,0.35,1.06,1.96
0.706,2.63,2.35,2.31
0.707,2.43,1.57,0.78
0.708,2.67,1.18,2.43
0.709,2.82,1.06,6.63
0.71,1.26,-13.61,14.59
0.711,6.39,-7.22,20.01
0.712,-1.33,2.79,19.97
0.713,1.49,-10.04,7.49
0.714,-1.49,-6.63,1.77
0.715,-2.82,-3.57,3.06
0.716,-2.67,-3.61,2.51
0.717,-4.39,-4.2,2.67
0.718,-3.06,-2.82,7.14
0.719,-4.98,-8.75,11.38
0.72,0,-13.18,18.04
0.721,0.08,-4.39,18.36
0.722,-1.14,1.53,10.87
0.723,1.26,-3.8,3.61
0.724,0.71,2.79,3.45
0.725,2.9,2.94,3.37
0.726,2.86,-0.12,1.84
0.727,2.71,1.41,4.63
0.728,2.12,1.06,7.88
0.729,3.57,-16.04,15.85
0.73,-0.67,0,20.01
0.731,-0.71,-5.81,13.3
0.732,2.16,-11.02,6.79
0.733,-1.65,-4.79,3.8
0.734,-2.24,-3.61,3.3
0.735,-3.06,-5.3,2.47
0.736,-4.47,-4.86,3.77
0.737,-1.88,-3.57,7.26
0.738,-5.3,-13.18,11.69
0.739,0.47,-9.1,20.01
0.74,1.84,-2.59,19.06
0.741,2.75,-2.55,8.04
0.742,-1.37,0.86,3.18
0.743,0.82,2.24,2
0.744,2.98,3.14,1.61
0.745,3.61,1.29,0.98
0.746,2.75,-1.92,4.12
0.747,1.14,-4.35,8.87
0.748,-0.51,-10.59,16.79
0.749,-3.33,-7.61,16.71
0.75,2.71,-7.85,9.14
0.751,1.65,-7.88,6.12
0.752,0.59,0.24,7.92
0.753,0.16,-2.82,3.41
0.754,-3.26,-5.26,0.27
0.755,-3.92,-3.88,3.3
0.756,-2.86,-6.24,8.55
0.757,-6,-10.04,15.53
0.758,-1.57,-9.45,18.01
0.759,-1.57,-3.45,14.36
0.76,0.27,-3.37,6.94
0.761,-0.94,0.35,4.47
0.762,0.75,2.51,3.61
0.763,1.65,3.06,2.24
0.764,1.69,1.84,1.22
0.765,2.63,2.43,3.45
0.766,3.92,-4.43,7.49
0.767,2.94,-8.87,18.01
0.768,-2.47,-1.41,19.89
0.769,6.86,-11.1,15.06
0.77,2.47,-9.65,10.79
0.771,-0.9,-2.12,7.53
0.772,-1.77,-3.84,2.51
0.773,-4.59,-2.94,1.06
0.774,-3.77,-4.12,3.37
0.775,-4.94,-2.24,5.57
0.776,-6.67,-8.79,10.83
0.777,-2.55,-9.45,17.97
0.778,-2.75,-2.12,18.28
0.779,0.08,-3.49,9.81
0.78,-0.67,-1.22,5.18
0.781,1.33,1.57,4.24
0.782,1.92,2.39,2.39
0.783,2.79,-0.04,1.88
0.784,2.55,0,3.18
0.785,0.78,0,7.02
0.786,-1.73,-12.71,12.4
0.787,-0.16,-3.53,19.65
0.788,-1.57,-4.59,14.79
0.789,0.67,-11.65,6.32
0.79,-2,-2.71,6.16
0.791,-2.12,-2.51,4.55
0.792,-2.71,-5.02,2.63
0.793,-5.06,-4.31,2
0.794,-3.18,-3.45,6
0.795,-7.22,-9.22,9.26
0.796,-4.82,-8.94,16.28
0.797,-2.98,-5.3,20.01
0.798,0.08,0.35,16.99
0.799,0.43,-1.88,8.75
0.8,0.43,0.51,5.69
0.801,2.39,1.02,3.37
0.802,2.59,0.94,1.69
0.803,3.18,-0.16,1.53
0.804,1.37,0.78,5.18
0.805,-0.31,-11.02,9.69
0.806,2.86,-14.75,18.01
0.807,-3.57,3.14,19.3
0.808,-1.1,-9.49,7.3
0.809,-0.55,-7.85,3.84
0.81,-2.51,-0.08,4.71
0.811,-3.22,-2.63,1.61
0.812,-4.55,-5.06,0.51
0.813,-3.73,-4.47,4.31
0.814,-5.57,-5.53,7.41
0.815,-7.45,-11.22,13.73
0.816,-0.27,-9.77,19.65
0.817,-2.31,-1.29,15.81
0.818,-0.08,-4.39,5.57
0.819,-1.26,0.47,3.02
0.82,2.2,1.84,4.47
0.821,1.8,2.39,3.1
0.822,2.47,1.26,2.51
0.823,2.71,0.55,4.67
0.824,2.47,-2.71,8.67
0.825,2.86,-15.14,17.77
0.826,-1.49,0.82,19.26
0.827,-0.43,-8.59,12
0.828,1.06,-11.3,8.75
0.829,-3.73,-1.37,6.59
0.83,-2.24,-3.8,2.24
0.831,-3.45,-4.35,0.51
0.832,-3.49,-4.35,1.57
0.833,-4.98,-4.9,4.63
0.834,-5.77,-7.22,12.47
0.835,-4.98,-10.83,18.32
0.836,1.33,-3.45,19.85
0.837,0.39,-2.39,9.41
0.838,-0.51,-0.08,4.75
0.839,2.12,2.16,3.65
0.84,1.61,3.77,1.96
0.841,4.31,1.06,2.28
0.842,3.61,-0.98,3.84
0.843,3.37,-0.63,6.43
0.844,4.12,-13.45,13.18
0.845,1.37,-2.2,20.01
0.846,0.47,-6.28,16.4
0.847,0.86,-9.73,8.94
0.848,-1.49,-4.98,6.08
0.849,-0.63,-3.49,3.92
0.85,-2.35,-3.96,0.24
0.851,-3.96,-3.61,0.2
0.852,-3.96,-4.12,4.04
0.853,-6.16,-4.94,7.92
0.854,-2.55,-10.59,17.1
0.855,-0.12,-8.83,19.14
0.856,-0.35,-0.9,11.73
0.857,1.84,-4.94,5.14
0.858,-0.35,0.51,3.77
0.859,1.18,3.41,3.22
0.86,2.82,1.73,2.79
0.861,3.45,0.59,2.71
0.862,4.04,0.82,6.12
0.863,1.92,-8.2,9.14
0.864,3.77,-7.85,18.24
0.865,-0.75,-2.43,18.63
0.866,3.88,-10.9,14.2
0.867,0.94,-5.06,10.04
0.868,-1.41,-3.77,4.94
0.869,-1.45,-5.26,0
0.87,-2.71,-4.63,-0.82
0.871,-4.2,-3.18,1.57
0.872,-6,-7.02,5.77
0.873,-6.67,-10.12,15.1
0.874,-1.65,-7.53,20.01
0.875,-1.49,-3.22,15.46
0.876,-0.04,-3.22,6
0.877,0.08,0.82,2.94
0.878,1.57,1.41,2.75
0.879,3.06,1.92,3.02
0.88,4.47,-1.1,3.65
0.881,4.28,-0.27,6.24
0.882,1.02,-4.43,6.28
0.883,6.51,-11.18,16.28
0.884,0.82,0.47,20.01
0.885,2.24,-6.67,14.91
0.886,0.94,-9.69,8.36
0.887,-1.57,-3.06,5.61
0.888,-0.71,-3.73,3.14
0.889,-2.79,-4.79,0.08
0.89,-3.41,-4.51,0.82
0.891,-2,-4.24,6.12
0.892,-5.41,-8.16,9.61
0.893,-2.51,-11.85,15.89
0.894,1.37,-7.37,19.97
0.895,-0.04,-1.1,10.71
0.896,0.43,-1.92,4.63
0.897,0.04,1.49,4.86
0.898,2.08,2.71,4.75
0.899,3.88,-0.67,2.28
0.9,3.02,0.2,2.43
0.901,3.18,0.35,4.86
0.902,2.04,-12.4,10.87
0.903,4.04,-5.81,19.77
0.904,-1.18,-2.9,18.48
0.905,4.35,-9.14,11.49
0.906,-1.06,-5.53,4.75
0.907,-2.04,-4.04,3.88
0.908,-1.88,-5.61,2.24
0.909,-4.16,-3.65,2.16
0.91,-2.94,-4.94,4.31
0.911,-4.51,-6.59,8.36
0.912,-3.22,-10.87,17.14
0.913,0.31,-10.75,19.3
0.914,-0.12,-2.24,16.32
0.915,0.12,-3.37,6.86
0.916,-0.78,0,3.96
0.917,1.49,1.92,5.02
0.918,2,1.18,3.22
0.919,2.75,-0.04,2.55
0.92,2.08,0.51,6.59
0.921,2.2,-6.04,11.89
0.922,1.49,-5.06,15.22
0.923,-0.86,-3.96,10.51
0.924,4.51,-10.16,8.9
0.925,-0.08,-6.39,8.55
0.926,-1.53,-3.14,5.49
0.927,-2.43,-6.32,0.98
0.928,-3.69,-5.73,1.77
0.929,-4.82,-3.77,3.22
0.93,-3.53,-6.43,7.69
0.931,-4.75,-9.45,17.02
0.932,1.33,-10.47,20.01
0.933,1.33,-3.18,14.83
0.934,1.53,-2.12,6.16
0.935,0.08,0.2,3.3
0.936,1.53,2.2,4.2
0.937,2.31,3.77,4
0.938,2.47,0.75,2.16
0.939,3.18,-1.29,3.8
0.94,1.26,-4.28,6.94
0.941,6.75,-13.65,17.93
0.942,1.06,-2.2,20.01
0.943,2.67,-8.55,14.79
0.944,1.06,-9.22,9.45
0.945,-0.86,-4.04,4.71
0.946,-1.33,-4.98,-0.27
0.947,-3.84,-4.24,-1.61
0.948,-3.77,-2.35,1.26
0.949,-3.3,-4.94,5.22
0.95,-8.32,-10,13.38
0.951,-1.69,-7.73,20.01
0.952,-1.18,-4.86,13.57
0.953,0.98,-3.33,7.65
0.954,-0.67,0.98,5.06
0.955,0.43,0.86,3.18
0.956,3.3,1.02,2.63
0.957,2.75,1.02,2.28
0.958,3.45,-0.86,4
0.959,1.88,-11.1,10.2
0.96,2.94,-5.96,18.24
0.961,-0.27,-3.77,19.5
0.962,1.37,-9.34,11.38
0.963,-1.02,-5.57,7.22
0.964,0.31,-4.67,5.96
0.965,-2.67,-4.28,2.35
0.966,-4.31,-4.51,1.33
0.967,-3.3,-4.43,4.16
0.968,-5.18,-5.77,6.51
0.969,-6.39,-9.02,14.59
0.97,0.04,-11.81,19.85
0.971,-0.63,-0.63,17.18
0.972,-0.12,-3.26,6.83
0.973,0.47,0.47,4.47
0.974,1.53,1.49,3.57
0.975,2.43,1.45,2.79
0.976,2.16,0.51,2.71
0.977,2.67,1.49,3.65
0.978,4.08,-3.65,5.06
0.979,1.41,-11.1,17.69
0.98,0.63,3.22,20.01
0.981,2.9,-7.65,16.99
0.982,-0.39,-6.98,7.69
0.983,-2.47,-3.06,3.1
0.984,-0.16,-4.9,2.43
0.985,-2.79,-3.77,1.22
0.986,-3.69,-4.16,1.77
0.987,-2.2,-5.33,5.41
0.988,-6.04,-7.73,8.71
0.989,-0.86,-12.63,17.38
0.99,0.9,-5.84,20.01
0.991,-0.39,0,14.44
0.992,4.31,-6.35,7.02
0.993,-2.67,4.51,5.81
0.994,1.49,1.57,4.82
0.995,2.04,0.47,2.43
0.996,2.47,2.94,2.47
0.997,4.31,0.94,4.63
0.998,4.59,-6.16,8.2
0.999,1.84,-11.41,16.12
1,-0.9,-1.18,19.85
1.001,1.53,-9.81,10.67
1.002,-1.61,-6.28,4.31
1.003,-1.77,-3.02,2.86
1.004,-2.2,-3.88,1.29
1.005,-4.04,-5.14,0.9
1.006,-4.12,-4,3.37
1.007,-3.14,-7.06,8.71
1.008,-6,-9.57,14.75
1.009,-0.35,-10.67,19.93
1.01,0.35,-3.18,18.04
1.011,1.18,-4,7.92
1.012,0.12,0.16,3.92
1.013,1.45,1.33,4.55
1.014,3.73,2.04,3.8
1.015,4.04,0.2,2.24
1.016,3.1,1.96,4.12
1.017,2.31,-3.84,7.06
1.018,2.9,-14.67,17.3
1.019,-2.43,1.65,20.01
1.02,2.2,-10.83,10.55
1.021,-0.12,-8.94,5.02
1.022,-2.08,-2.59,3.73
1.023,-0.47,-4.86,1.37
1.024,-2.08,-5.88,0.43
1.025,-3.73,-2.67,2.63
1.026,-2.16,-4.75,6.12
1.027,-4.82,-8.98,8.24
1.028,-1.45,-9.57,19.38
1.029,-0.67,-6.43,19.38
1.03,0.43,-3.57,10.12
1.031,-0.59,-1.18,5.1
1.032,0,1.88,3.18
1.033,2.28,2.12,2.86
1.034,3.65,1.18,1.92
1.035,4.16,0.2,2.71
1.036,4.86,-0.59,6.67
1.037,5.53,-16.36,13.06
1.038,5.65,-7.53,20.01
1.039,1.65,-3.96,17.42
1.04,2.94,-12.83,7.14
1.041,-1.73,-3.18,6.24
1.042,0.08,-3.69,4.04
1.043,-2.59,-5.06,0.59
1.044,-4.35,-4.86,0.98
1.045,-2.08,-5.06,5.06
1.046,-6.2,-11.14,9.41
1.047,-3.18,-9.41,19.02
1.048,0.59,-10.67,19.93
1.049,0.86,-2.04,11.34
1.05,0.39,-1.69,3.22
1.051,0.43,1.37,1.61
1.052,3.1,2.59,2.43
1.053,2.9,2.39,2.08
1.054,4.16,0.43,2.9
1.055,3.61,-1.69,5.65
1.056,5.92,-14.79,17.1
1.057,2.08,-2.16,20.01
1.058,2.51,-4.82,16.91
1.059,3.96,-11.02,9.06
1.06,0,-4.51,7.26
1.061,-1.18,-2.79,3.49
1.062,-2.51,-4.59,0.55
1.063,-4.71,-3.96,0.75
1.064,-4.35,-4.75,3.41
1.065,-6.08,-8.79,7.02
1.066,-6.08,-8.08,17.22
1.067,-2.43,-10.71,16.99
1.068,-2.43,-0.78,12
1.069,1.49,-3.49,5.57
1.07,0.08,1.8,4.04
1.071,0.9,3.06,3.96
1.072,2.86,1.77,3.06
1.073,3.84,1.29,4.31
1.074,4.35,-0.27,4.79
1.075,5.57,-12.91,9.65
1.076,5.69,-6.12,20.01
1.077,1.02,0.08,20.01
1.078,5.33,-11.53,11.3
1.079,-2.28,-3.3,6.94
1.08,-1.84,-4.71,5.18
1.081,-3.84,-5.73,1.88
1.082,-5.26,-5.61,0.24
1.083,-3.77,-5.73,3.45
1.084,-4.12,-3.88,8.79
1.085,-2.82,-8.43,17.77
1.086,-1.02,-6.39,19.46
1.087,-0.59,-1.29,15.85
1.088,0.78,-3.26,7.02
1.089,-0.47,0.24,3.3
1.09,1.92,2.12,2.63
1.091,3.73,1.8,1.92
1.092,3.18,0.31,1.49
1.093,3.61,-1.77,4.28
1.094,3.88,-9.26,11.26
1.095,2.43,-2.82,17.85
1.096,4.12,-4.98,17.97
1.097,3.8,-9.41,14.47
1.098,-1.29,-5.61,9.14
1.099,-0.59,-4.39,4.67
1.1,-1.96,-4.12,0.24
1.101,-2.9,-5.81,-0.55
1.102,-3.49,-4.55,1.14
1.103,-3.49,-3.77,7.18
1.104,-8.79,-15.22,11.1
1.105,-1.84,-6.86,20.01
1.106,-2.12,-1.88,16.4
1.107,2.31,-3.77,6.59
1.108,2.04,0.9,5.06
1.109,2.35,2.2,3.96
1.11,3.14,1.84,2.79
1.111,3.92,0.31,2.55
1.112,4.71,-1.73,5.77
1.113,2.2,-6.55,7.37
1.114,6.28,-8.94,19.69
1.115,-2.51,-4.28,15.73
1.116,-1.33,-8.67,7.81
1.117,0.04,-9.49,5.33
1.118,-3.22,-4.98,5.18
1.119,-3.8,-6.55,2.71
1.12,-5.88,-7.53,2.2
1.121,-6.47,-4.98,4.59
1.122,-6.12,-10.71,10.79
1.123,-1.22,-6.98,20.01
1.124,0.75,-4.86,19.3
1.125,7.49,-5.1,10.83
1.126,2.75,1.18,5.1
1.127,4.12,1.92,4.04
1.128,1.96,2.86,1.57
1.129,2.2,1.88,0.08
1.13,3.22,-0.35,1.22
1.131,3.8,-1.65,6.24
1.132,1.96,-9.96,10.87
1.133,1.69,-6.39,18.95
1.134,-2.59,-5.88,14.24
1.135,-0.75,-9.06,9.49
1.136,-0.35,-6.83,5.65
1.137,0,-6.32,4.71
1.138,-2.35,-4.94,2.9
1.139,-5.06,-3.8,2.35
1.14,-2.55,-5.02,6.32
1.141,-5.06,-5.53,8.2
1.142,-3.8,-11.1,15.14
1.143,0.86,-8.55,19.34
1.144,-0.35,0.2,11.26
1.145,2.43,-1.73,4.35
1.146,0.08,2,2.59
1.147,4.39,2.71,3.49
1.148,5.49,2.08,2.79
1.149,5.02,0.47,3.06
1.15,6.94,-4.2,6.63
1.151,5.81,-14.24,15.14
1.152,4.31,-4.75,20.01
1.153,0.47,-6,14.67
1.154,1.26,-10.67,6.04
1.155,-0.75,-5.61,3.92
1.156,-1.26,-4.28,3.41
1.157,-3.53,-3.8,2.12
1.158,-5.65,-3.37,1.84
1.159,-3.22,-4.43,6.98
1.16,-7.02,-9.85,10.47
1.161,-3.61,-10.04,18.48
1.162,-0.75,-7.49,17.3
1.163,0.27,-1.8,10.08
1.164,2.08,-2.47,3.53
1.165,0.82,1.37,2.2
1.166,4.71,1.73,3.3
1.167,3.88,2,1.73
1.168,3.61,0.98,0.9
1.169,5.22,-2.31,1.69
1.17,6,-12.79,10.67
1.171,8.2,-6.86,20.01
1.172,3.18,-6,20.01
1.173,4.47,-10.79,15.18
1.174,-0.04,-6.63,7.61
1.175,-3.88,-5.77,1.06
1.176,-4.28,-5.26,-0.16
1.177,-5.53,-1.69,0.67
1.178,-3.06,-2.39,3.69
1.179,-3.8,-9.06,8.47
1.18,-2.67,-8.36,16.71
1.181,0,-7.49,15.89
1.182,0.39,-2.04,10.2
1.183,1.22,-2.98,4
1.184,0.47,1.41,2.86
1.185,3.3,1.8,2.94
1.186,4.75,0.63,2.39
1.187,4.94,-0.24,2.86
1.188,6.28,-3.65,4
1.189,5.33,-12.67,12.98
1.19,5.88,-3.1,20.01
1.191,1.45,-6.67,17.69
1.192,3.14,-11.53,11.81
1.193,0.27,-5.49,7.81
1.194,-1.92,-4.55,2.71
1.195,-2.98,-4.31,0.67
1.196,-4.39,-2.51,1.06
1.197,-3.84,-3.1,3.14
1.198,-5.33,-9.57,8.32
1.199,-1.73,-6.71,17.57
1.2,-1.45,-4.2,18.01
1.201,1.18,-2.71,8.79
1.202,2.24,-3.61,4.35
1.203,1.26,2.28,3.88
1.204,3.57,3.06,4.35
1.205,3.8,1.18,2.63
1.206,5.18,-1.33,3.14
1.207,6.67,-2.75,6.79
1.208,5.1,-11.89,12.67
1.209,6.47,-4,20.01
1.21,1.61,-6.16,14.91
1.211,3.53,-10.04,11.49
1.212,0.16,-6.2,8.94
1.213,-1.96,-4.12,4.47
1.214,-2.35,-4.12,1.14
1.215,-3.88,-3.45,0.59
1.216,-3.65,-3.26,2.24
1.217,-5.22,-8.83,7.41
1.218,-2.59,-8.67,17.06
1.219,-0.27,-7.73,18.4
1.22,1.53,-1.14,11.53
1.221,1.65,-2.63,5.69
1.222,0.47,0.63,2.71
1.223,3.41,2,3.06
1.224,4.98,2.08,3.18
1.225,5.22,-0.31,3.22
1.226,6.79,-3.65,5.33
1.227,4.75,-10.55,10.55
1.228,4.47,-4.63,20.01
1.229,2.47,-6.35,15.81
1.23,3.65,-11.02,9.14
1.231,0.94,-6.79,7.61
1.232,0.08,-4.12,5.06
1.233,-1.18,-3.14,1.22
1.234,-3.96,-4.79,-0.27
1.235,-4.9,-3.18,1.8
1.236,-5.06,-6.75,5.57
1.237,-3.73,-10,15.38
1.238,-1.45,-10.04,18.16
1.239,1.88,-3.92,15.3
1.24,3.1,-5.33,7.88
1.241,0.63,-0.63,4.47
1.242,1.33,2.35,3.41
1.243,3.77,1.65,2.2
1.244,3.73,0.47,1.33
1.245,4.9,0.67,2.71
1.246,7.02,-2.9,5.06
1.247,6.32,-12.24,12.08
1.248,4.16,-2.63,19.97
1.249,5.26,-4.86,15.97
1.25,4.86,-9.65,10.12
1.251,0.94,-4.59,7.61
1.252,0,-4.2,4.24
1.253,-2,-5.06,1.84
1.254,-4.55,-4.12,1.65
1.255,-4.04,-4.51,3.45
1.256,-2.43,-6.12,8.2
1.257,-4.75,-10.55,17.34
1.258,2.94,-11.45,19.5
1.259,0.55,-3.06,12.79
1.26,1.73,-3.22,4.9
1.261,-0.16,0.59,2.2
1.262,0.98,2.51,1.18
1.263,3.02,2.35,1.37
1.264,3.65,1.57,1.49
1.265,5.84,-2.86,5.45
1.266,6.28,-4.75,10.55
1.267,7.18,-13.53,17.06
1.268,1.57,-5.92,13.96
1.269,1.65,-8.08,9.06
1.27,2.59,-11.49,9.69
1.271,-0.2,-3.92,8.32
1.272,-2.39,-3.84,2.51
1.273,-4.63,-5.77,-0.31
1.274,-4.9,-4.08,1.18
1.275,-3.61,-4.98,4.2
1.276,-6.08,-12.98,12.55
1.277,1.37,-11.22,20.01
1.278,0.35,-4.31,18.24
1.279,2.12,-3.06,7.02
1.28,1.37,-2.04,2.51
1.281,0.86,0.82,0.35
1.282,4.12,2.43,0.67
1.283,3.84,1.37,-0.08
1.284,3.61,0.75,1.29
1.285,6.12,-2.51,4.98
1.286,4.55,-12.83,10.67
1.287,8.32,-10.51,20.01
1.288,2.63,-3.49,20.01
1.289,2.47,-10.79,10.51
1.29,-0.31,-6.08,5.18
1.291,-2.31,-4.51,1.73
1.292,-3.57,-6.2,-0.71
1.293,-4.98,-3.69,1.53
1.294,-2.55,-6.08,6.9
1.295,-4.35,-10.08,8.63
1.296,-3.8,-13.85,15.22
1.297,1.45,-12.55,17.46
1.298,-0.94,0.39,10.51
1.299,2.2,-1.22,3.33
1.3,1.61,1.65,1.22
1.301,3.33,2.35,1.37
1.302,5.14,0.9,1.37
1.303,4.94,0.16,4.24
1.304,5.77,-3.26,5.77
1.305,7.45,-15.77,14.08
1.306,3.88,-2.31,20.01
1.307,1.84,-7.41,16.12
1.308,3.06,-12.36,10.08
1.309,-1.37,-5.06,7.41
1.31,-2.79,-5.69,2.63
1.311,-3.88,-5.26,0.08
1.312,-3.88,-4.71,1.18
1.313,-2.59,-4.98,5.65
1.314,-5.22,-8.71,10.75
1.315,-1.65,-11.49,17.93
1.316,-0.47,-8.71,16.91
1.317,1.77,-3.49,9.14
1.318,0.78,-2.39,3.8
1.319,-0.27,2.2,1.45
1.32,4.04,2.39,1.96
1.321,3.96,1.29,1.14
1.322,4.82,0.27,2.71
51.99641,4.9,-4.47,5.49
1.325,4.9,-14.98,11.26
1.326,6.39,-6.35,20.01
1.327,1.49,-5.41,15.14
1.328,2.9,-11.38,7.65
1.329,0.08,-5.02,6.55
1.33,0.08,-2.86,4.04
1.331,-1.45,-3.92,0.04
1.332,-3.84,-3.69,0.39
1.333,-2.75,-3.14,3.14
1.334,-6.71,-14.2,5.06
1.335,1.06,-8.87,20.01
1.336,0.82,-1.49,20.01
1.337,3.3,-4.51,10.87
1.338,5.1,-4.71,8.12
1.339,1.29,-0.9,4.94
1.34,2.75,-0.82,2.35
1.341,2.94,-0.27,1.26
1.342,3.77,-0.98,0.9
1.343,5.3,-3.1,4.43
1.344,4.75,-4.86,7.41
1.345,5.92,-8.9,13.69
1.346,2.98,-2.43,13.77
1.347,1.8,-5.26,8.83
1.348,3.84,-8.51,7.61
1.349,-0.47,-6.04,7.81
1.35,0.9,-6.24,9.34
1.351,0.16,-5.69,9.3
1.352,-1.8,-4.71,6.55
1.353,-0.86,-5.14,4.51
1.354,-1.14,-5.45,4.43
1.355,-0.71,-5.18,6.16
1.356,-1.37,-6.67,8.24
1.357,-0.9,-6.79,15.53
1.358,-0.31,-1.8,16.48
1.359,1.33,-2.43,12.43
1.36,2.43,-2.51,7.61
1.361,0.67,-1.8,4.75
1.362,0.75,-2.16,3.61
1.363,1.29,-3.33,4.9
1.364,0.75,-2.59,7.18
1.365,2.39,-3.77,10.16
1.366,2.51,-4.79,9.18
1.367,1.57,-5.02,7.22
1.368,1.02,-5.61,6.24
1.369,0.43,-5.18,6.79
1.37,0.67,-5.18,7.73
1.371,0.98,-4.67,7.69
1.372,1.22,-5.14,6.79
1.373,2.31,-6.04,7.1
1.374,2.9,-6.12,8.16
1.375,2.82,-5.06,8.67
1.376,2.24,-4.63,7.81
1.377,2.16,-4.82,6.86
1.378,1.92,-4.12,7.02
1.379,2.31,-4.16,7.45
1.38,2.43,-4.51,7.26
1.381,2.67,-5.1,6.98
1.382,2.79,-4.9,7.85
1.383,2.51,-4.55,8.2
1.384,2.35,-4.28,8.24
1.385,2.67,-3.73,8.75
1.386,2.28,-3.61,8.2
1.387,2,-3.84,7.45
1.388,1.69,-3.88,7.3
1.389,1.92,-4.12,7.61
