NAME:,running1,,
EXPERIMENT TIME:,05/06/2023 19:24,,
ACTIVITY TYPE:,Running,,
COUNT OF ACTUAL STEPS:,170,,
,,,
Time [sec],ACC X,ACC Y,ACC Z
0.001,-0.08,-2.59,8.79
0.002,0.04,-2.43,9.18
0.003,0.2,-2.51,8.47
0.004,0.12,-2.67,8.08
0.005,-0.08,-2.67,8.47
0.006,-0.67,-2.55,8.79
0.007,-0.39,-2.55,8.94
0.008,-0.51,-2.86,8.47
0.009,-0.75,-2.79,8.2
0.01,-0.59,-2.67,8.32
0.011,-0.63,-2.79,8.2
0.012,-0.98,-2.79,8.16
0.013,-0.75,-3.06,8.59
0.014,-0.9,-3.3,9.41
0.015,-0.59,-2.79,9.61
0.016,-0.51,-2.75,9.14
0.017,-0.86,-2.71,8.16
0.018,-1.1,-2.9,8.04
0.019,-0.75,-2.98,9.26
0.02,-0.75,-2.9,9.14
0.021,-0.63,-3.14,8.43
0.022,-0.55,-2.98,8.08
0.023,-1.14,-2.9,7.73
0.024,-0.75,-2.94,7.61
0.025,-0.31,-2.79,8.55
0.026,-0.47,-2.43,8.63
0.027,-0.16,-2.39,8
0.028,0.31,-2.86,8.67
0.029,-0.12,-2.16,8.98
0.03,0.04,-2.67,9.06
0.031,0.12,-2.67,10
0.032,0.35,-1.26,11.22
0.033,2.04,-2.51,10.28
0.034,1.18,-3.14,9.49
0.035,1.18,-1.61,9.73
0.036,1.14,-1.53,8.28
0.037,1.02,-2.47,5.92
0.038,0.39,-2.67,5.81
0.039,0.31,-2.55,7.57
0.04,0.27,-2.08,8.2
0.041,0.2,-2.43,7.96
0.042,0.82,-2.24,8.08
0.043,0.98,-2.28,7.45
0.044,0.39,-2,6.28
0.045,0.16,-3.3,9.18
0.046,-1.02,-4.2,12.32
0.047,-2.59,-3.06,12.16
0.048,-0.94,-3.41,13.89
0.049,-0.39,-2.71,13.53
0.05,-0.12,-0.94,10.24
0.051,0.67,-1.41,6.12
0.052,-0.35,-0.16,4.98
0.053,-0.55,1.41,4.04
0.054,-0.31,-0.75,4.08
0.055,-0.16,-0.75,5.06
0.056,0.78,-2.9,9.22
0.057,1.57,-3.14,11.14
0.058,2.24,-4.94,15.06
0.059,1.06,-1.57,15.73
0.06,-0.35,-3.1,9.65
0.061,0.55,-4.12,6.79
0.062,0.24,-2.9,5.96
0.063,-0.27,-1.77,4.9
0.064,-0.2,-1.8,4.59
0.065,-0.35,-2.43,5.73
0.066,-2.94,-4.55,9.81
0.067,1.14,-4.51,14.79
0.068,-2.51,-1.33,12
0.069,0.2,-2.16,14.04
0.07,-0.27,-0.75,13.06
0.071,-0.94,0,7.22
0.072,1.29,-1.49,5.92
0.073,-0.04,1.92,4.04
0.074,0.24,-0.43,3.06
0.075,1.02,-1.14,4.31
0.076,0.98,-3.84,10.47
0.077,2.75,-1.45,11.77
0.078,0,-6.28,10.87
0.079,4.08,-4.98,16.48
0.08,-0.04,-1.45,9.22
0.081,1.06,-4.67,4.79
0.082,0.78,-2.31,4.16
0.083,-0.94,-0.04,3.1
0.084,-0.12,-2.12,3.96
0.085,-0.47,-2.47,7.34
0.086,-3.37,-5.06,12.16
0.087,0.35,-5.49,15.65
0.088,-1.88,-2.98,12.4
0.089,2.67,-2.28,15.42
0.09,-0.31,0.98,10.83
0.091,1.18,-0.67,5.77
0.092,0.63,-1.22,4.2
0.093,0.08,-0.24,3.22
0.094,1.06,-2.12,5.06
0.095,0.47,-2.67,7.18
0.096,1.37,-2.75,10.9
0.097,1.06,-7.14,12.63
0.098,2.12,-3.33,13.18
0.099,2.2,-2.39,9.14
0.1,1.65,-4.86,5.37
0.101,2,-1.41,5.57
0.102,-0.27,-0.43,3.61
0.103,-0.08,-2.28,4.12
0.104,-0.86,-2.67,7.02
0.105,-0.71,-5.26,13.69
0.106,-3.18,-2.43,13.73
0.107,0.59,-3.84,13.81
0.108,2.9,-2.2,15.1
0.109,-0.43,1.96,10.28
0.11,1.96,-1.37,6.08
0.111,0.63,-1.69,3.61
0.112,0.86,0.31,4.28
0.113,0.82,-0.47,4.71
0.114,1.49,-4.31,6.12
0.115,2.39,-4.04,12.67
0.116,1.57,-3.02,9.81
0.117,3.65,-8.55,11.69
0.118,0.98,-2.82,12.32
0.119,-0.04,-2.79,7.45
0.12,0.78,-3.26,3.8
0.121,0.59,-2.24,2.98
0.122,-0.94,-3.06,3.33
0.123,-0.39,-3.88,6.08
0.124,-1.53,-5.02,15.38
0.125,-0.39,-5.33,13.42
0.126,-0.59,-5.22,12.12
0.127,3.37,-2.86,14.98
0.001,-0.86,2.63,10.4
0.002,1.29,-1.33,5.3
0.003,0.94,-1.61,3.8
0.004,0.16,-0.12,3.41
0.005,1.65,-0.63,5.26
0.006,3.45,-6.9,7.96
0.007,1.33,-6.28,12.32
0.008,-0.71,-3.18,9.18
0.009,2.39,-7.41,10.12
0.01,-0.43,-3.02,8.71
0.011,-0.2,-1.69,6.35
0.012,-0.04,-2.9,5.92
0.013,-1.73,-1.92,4
0.014,-1.1,-4.39,5.02
0.015,-1.37,-7.69,11.18
0.016,0.71,-5.37,15.85
0.017,-1.33,-4.08,11.96
0.018,1.18,-6.32,13.06
0.019,1.96,-0.51,15.38
0.02,-3.02,1.41,8.55
0.021,1.14,-1.06,5.92
0.022,1.45,0.94,4.2
0.023,1.84,-0.63,3.37
0.024,0.12,-0.51,3.14
0.025,2.28,-7.45,9.22
0.026,2.31,-3.02,9.69
0.027,1.8,-7.69,9.65
0.028,0.86,-5.77,12.83
0.029,-1.06,-3.37,7.57
0.03,1.37,-7.22,4.08
0.031,0.78,-4.04,4.71
0.032,-1.1,-2.39,3.18
0.033,-1.18,-4.24,4.63
0.034,-1.73,-4.04,9.38
0.035,0.12,-8.98,15.46
0.036,-1.33,-9.06,12.59
0.037,-2.55,-4.08,14.79
0.038,0.9,-1.57,15.26
0.039,-2.47,-0.71,6.51
0.04,1.29,-2.12,4.24
0.041,1.02,-0.82,3.18
0.042,-0.86,0.98,2.43
0.043,0.67,1.06,4.28
0.044,2.24,-6,9.61
0.045,2.43,-6.12,11.18
0.046,0.39,-6.24,7.02
0.047,2.63,-7.41,13.73
0.048,-2.43,-0.94,8.79
0.049,1.61,-4.9,4.75
0.05,1.53,-3.88,4.08
0.051,-2.35,-1.96,2.51
0.052,-1.1,-4.67,4.63
0.053,-0.75,-3.73,10
0.054,-1.26,-7.92,15.02
0.055,-1.41,-6.59,14.44
0.056,-1.49,-4.04,11.65
0.057,1.77,-2.9,13.45
0.058,-1.18,0.2,7.57
0.059,2.43,-2,4.79
0.06,1.14,-0.78,3.14
0.061,0.08,1.1,3.3
0.062,2,-0.08,4.79
0.063,1.61,-2.67,6.32
0.064,1.92,-7.85,14.44
0.065,0.94,-2.98,10.55
0.066,2.67,-7.53,6.79
0.067,0.94,-6.28,10.59
0.068,1.45,0.86,9.77
0.069,1.06,-3.88,6.35
0.07,-0.16,-4.08,5.84
0.071,-0.55,-1.49,5.49
0.072,0.47,-4.82,7.06
0.073,0.12,-5.22,8.43
0.074,-1.22,-8.47,15.42
0.075,-1.18,-4.9,14.28
0.076,0.12,-5.77,8.51
0.077,2.04,-5.14,10.79
0.078,-0.47,1.96,8.39
0.079,1.53,-1.61,4.67
0.08,0.67,-1.02,3.57
0.081,0.16,0.16,3.61
0.082,1.1,1.1,4.67
0.083,1.96,-6.24,5.88
0.084,2.2,-7.3,13.53
0.085,1.45,-3.53,10.9
0.086,2.39,-7.22,10.63
0.087,1.14,-1.96,9.89
0.088,1.33,-0.9,6.59
0.089,1.73,-4.75,4.51
0.09,-0.98,-2.82,4.75
0.091,-2.04,-3.3,5.73
0.092,-0.04,-5.65,8.94
0.093,0,-5.22,14.87
0.094,-0.86,-7.02,13.69
0.095,-1.29,-3.84,10.04
0.096,1.45,-5.02,12.08
0.097,-0.71,-0.51,11.02
0.098,-0.63,0.12,5.61
0.099,2.39,-2.12,3.57
0.1,0.35,-0.47,2.71
0.101,1.1,1.22,3.84
0.102,2.08,-6.47,6.39
0.103,-0.71,-4.47,11.49
0.104,0.27,0.27,8.36
0.105,2.12,-10.55,13.1
0.106,-1.8,-4.04,10.28
0.107,0.59,-3.57,6.67
0.108,1.29,-4.86,5.26
0.109,0,-2.35,4.67
0.11,-1.22,-3.33,4.12
0.111,-0.63,-4.82,6.12
0.112,-2.04,-5.96,14.51
0.113,-1.84,-6.86,14.71
0.114,-2.2,-4.67,13.22
0.115,2.08,-2.59,13.49
0.116,-0.94,0.59,8.2
0.117,0.31,0.12,5.02
0.118,2.2,-1.22,3.8
0.119,0.08,0.27,3.57
0.12,1.18,0.43,5.45
0.121,1.1,-4.67,9.53
0.122,1.41,-5.3,15.26
0.123,0.67,-1.77,11.81
0.124,2.82,-7.88,8.51
0.125,1.73,-4.9,8.67
0.126,-0.24,-0.9,6.98
0.127,0.43,-2.43,5.18
0.128,0.47,-3.73,4.71
0.129,-1.26,-2.39,3.69
0.13,0.04,-4,6.75
0.131,-0.9,-7.69,13.38
0.132,-1.18,-7.57,17.85
0.133,-3.1,-2.82,10.47
0.134,0,-4.43,9.1
0.135,2,-0.59,12.28
0.136,-2,4.63,7.81
0.137,1.26,-3.3,4.39
0.138,-0.86,-1.96,3.49
0.139,1.73,0.51,4.43
0.14,1.06,-0.35,3.8
0.141,0.39,-8.59,8.55
0.142,-2.16,-2.16,14.16
0.143,0.55,-4.82,11.18
0.144,-0.35,-7.73,9.3
0.145,-1.18,-0.47,8.94
0.146,0.98,-3.02,7.65
0.147,-0.67,-3.33,4.9
0.148,-1.14,-3.02,3.33
0.149,-0.82,-4.43,5.14
0.15,-0.24,-4.79,7.34
0.151,-1.96,-7.69,14.79
0.152,-2.79,-4.2,14.44
0.153,-0.43,-3.65,12.67
0.154,0.59,-1.22,11.57
0.155,-1.53,2.04,7.53
0.156,1.92,-0.43,5.57
0.157,1.18,-1.33,4.59
0.158,-0.78,0.67,4.67
0.159,1.73,1.53,6.39
0.16,1.14,-7.34,9.18
0.161,0.39,-5.02,15.26
0.162,0.86,-2.82,12
0.163,0.43,-9.57,6.47
0.164,-0.24,-2.63,8.36
0.165,-0.27,-0.63,7.45
0.166,1.1,-4.67,6.12
0.167,-0.43,-2.08,4.39
0.168,-0.31,-3.8,4.79
0.169,-0.39,-4.67,9.14
0.17,0.71,-7.18,14.55
0.171,-4.9,-4.47,15.06
0.172,-0.55,-5.02,11.18
0.173,0.12,-4,10.67
0.174,-2.08,2.16,8.32
0.175,2.12,0.24,6.47
0.176,0.39,-2.51,2.79
0.177,0.63,0.08,3.73
0.178,1.8,-0.16,6.08
0.179,1.1,-6.63,8.98
0.18,-0.12,-5.84,16.12
0.181,-1.65,-0.82,12.08
0.182,4.2,-10,6.98
0.183,0.31,-3.1,8.51
0.184,-1.37,1.57,6.86
0.185,0.35,-5.37,6.2
0.186,-0.51,-2.35,5.14
0.187,-1.02,-4.28,4.35
0.188,-2.28,-3.8,6.63
0.189,-2.67,-3.84,11.22
0.19,-3.14,-8.24,13.77
0.191,-2.08,-4.12,13.53
0.192,1.29,-5.57,14.67
0.193,-2.16,0.59,10
0.194,0.16,0,5.41
0.195,0.31,-0.27,3.65
0.196,-0.2,0.27,3.65
0.197,0.39,-0.47,4.43
0.198,0.78,-0.63,4.75
0.199,-1.02,-9.45,12.91
0.2,-1.92,-0.35,13.96
0.201,1.65,-9.06,9.02
0.202,0.55,-9.02,8.87
0.203,-0.2,0.08,9.61
0.204,-0.2,-2.35,5.45
0.205,1.57,-3.18,4.31
0.206,-1.22,-2.75,2.47
0.207,-0.12,-4.2,4.75
0.208,-0.94,-6.86,9.18
0.209,-1.65,-6.43,17.61
0.21,-3.69,-3.77,14.32
0.211,-0.94,-5.61,7.73
0.212,0.35,-5.26,9.77
0.213,-2.12,3.69,9.85
0.214,0.86,-1.69,7.96
0.215,0.2,-0.55,4.82
0.216,2.28,-0.27,4.55
0.217,1.06,0.39,5.92
0.218,0.43,-6.83,7.77
0.219,-2.39,-4.2,12.98
0.22,1.26,-4.67,10.24
0.221,2.47,-8.47,10.2
0.222,-2.39,-2,9.18
0.223,0,-2.28,5.77
0.224,0.75,-3.77,4.79
0.225,-0.94,-2.55,4.28
0.226,-1.41,-4.35,5.96
0.227,1.02,-5.57,9.89
0.228,-1.26,-5.77,15.1
0.229,-1.61,-6.24,15.42
0.23,-1.06,-2.24,13.02
0.231,0.98,-2.86,12.75
0.232,-1.49,0.78,9.02
0.233,1.33,-1.22,5.84
0.234,1.18,-1.41,4.35
0.235,0.27,1.02,4.2
0.236,0.55,0.39,4.59
0.237,2.16,-3.92,5.61
0.238,-2.08,-5.96,13.34
0.239,0.08,-0.82,14.36
0.24,2.43,-10.04,9.61
0.241,-1.29,-6.43,7.26
0.242,-0.75,-1.41,6.32
0.243,0.71,-2.94,5.73
0.244,-0.63,-1.61,3.92
0.245,-1.45,-3.1,3.18
0.246,0,-4.79,6.86
0.247,-3.26,-8.43,12.71
0.248,-1.22,-7.53,17.89
0.249,-3.84,-2.9,10.04
0.25,-0.63,-4.2,7.49
0.251,-0.08,-2.35,8.83
0.252,-0.51,1.53,6.24
0.253,2,-2.08,4.59
0.254,-0.2,0.31,4.43
0.255,1.53,-0.47,6.47
0.256,1.73,-1.41,7.88
0.257,-1.41,-9.96,12.67
0.258,-0.51,-4.31,16.99
0.259,0.55,-5.65,7.92
0.26,-0.75,-8.75,2.79
0.261,-1.02,2.47,8.12
0.262,3.14,-0.51,5.49
0.263,-0.63,-3.41,5.73
0.264,-1.88,-2.71,4.43
0.265,0.82,-5.33,5.57
0.266,-1.06,-5.26,9.57
0.267,-2.63,-6.47,13.3
0.268,-3.92,-4.9,12.91
0.269,-0.31,-5.14,11.77
0.27,-1.37,-2.43,9.89
0.271,-0.35,1.37,7.88
0.272,1.77,-0.9,5.92
0.273,-1.14,-0.43,4.16
0.274,1.26,-0.94,6.12
0.275,0.98,0,7.34
0.276,0.71,-7.18,11.38
0.277,-0.08,-4.79,16.28
0.278,-2.04,-1.92,11.89
0.279,3.77,-8.36,6.08
0.28,0.82,-4.55,6.98
0.281,-0.16,0.86,7.53
0.282,-0.51,-3.02,5.69
0.283,-1.02,-2.55,4.12
0.284,-1.84,-4.2,4
0.285,-2.31,-5.61,6.35
0.286,-1.92,-6.59,12.36
0.287,-2.98,-6.79,14.47
0.288,-2,-4.79,12.83
0.289,2.12,-6.79,11.61
0.29,-2.2,0.31,8.51
0.291,-0.08,0.31,5.65
0.292,1.1,-1.65,4.12
0.293,-0.47,-1.06,3.73
0.294,0.86,-0.51,6.24
0.295,1.18,-0.08,6.16
0.296,-1.77,-10.08,12.24
0.297,-0.86,-1.45,16.28
0.298,1.18,-6.71,10.2
0.299,-0.63,-7.96,3.53
0.3,-0.39,-2.9,7.14
0.301,0.78,0.51,7.61
0.302,-0.47,-3.1,4.12
0.303,-0.47,-2.79,4.47
0.304,-0.78,-3.69,6.67
0.305,-1.02,-7.1,10.75
0.306,-1.77,-9.53,15.42
0.307,-4.79,-3.65,11.96
0.308,0.47,-4.16,8.83
0.309,-0.75,-1.02,9.22
0.31,-0.47,3.65,8.2
0.311,1.33,-1.96,5.49
0.312,1.1,-0.39,5.3
0.313,2.39,0.43,5.69
0.314,0.94,-1.1,4.2
0.315,-2.55,-6.86,13.42
0.316,-2,2.16,14.83
0.317,1.69,-8.08,9.02
0.318,-0.82,-9.02,5.77
0.319,-0.75,-1.14,6.47
0.32,1.22,-5.18,5.41
0.321,0.39,-3.69,5.1
0.322,-0.63,-2.51,4.55
0.323,-0.63,-3.61,5.73
0.324,-0.9,-4.63,7.92
0.325,-4.12,-6.63,14.12
0.326,-3.26,-5.53,14
0.327,0,-3.22,11.96
0.328,-0.43,-3.37,11.65
0.329,-1.73,0.78,9.65
0.33,0.04,-0.12,6.55
0.331,1.06,-1.33,3.3
0.332,0.55,0.94,3.45
0.333,1.69,0.39,5.81
0.334,0.67,-5.88,8.94
0.335,-1.96,-7.49,15.61
0.336,-2.28,-1.53,14.98
0.337,2.43,-10.16,7.96
0.338,-0.63,-4.82,4.71
0.339,0.9,-1.18,4.82
0.34,-0.04,-0.78,3.73
0.341,1.02,-1.84,3.69
0.342,-1.77,-3.69,2.47
0.343,-0.31,-5.33,6.12
0.344,-1.65,-8.12,15.53
0.345,-0.35,-7.53,20.01
0.346,-3.37,-2.2,15.97
0.347,1.29,-6.35,8.75
0.348,-0.78,-2.75,8.67
0.349,-0.35,2.24,7.92
0.35,1.37,-1.77,4.94
0.351,-0.47,-1.37,3.73
0.352,1.26,0.2,5.3
0.353,1.57,0.08,5.33
0.354,-0.12,-8.36,12.16
0.355,-3.92,1.22,14.44
0.356,3.37,-8.59,8.59
0.357,1.8,-11.1,6.16
0.358,-0.75,-0.27,8.28
0.359,0.08,-3.61,5.57
0.36,-0.08,-2.24,4.98
0.361,-1.18,-2.16,3.92
0.362,-1.29,-4.86,3.53
0.363,-0.24,-4.28,6.9
0.364,-3.88,-6.28,11.65
0.365,-3.8,-6.08,13.06
0.366,-1.84,-3.61,13.53
0.367,1.26,-5.57,13.69
0.368,-2.24,1.14,10.47
0.369,0.98,-0.86,6
0.37,1.26,-2.04,4.43
0.371,0.82,0.04,3.8
0.372,1.29,-0.2,4.47
0.373,1.18,-3.53,5.26
0.374,0.27,-7.3,15.34
0.375,-1.53,-1.61,15.26
0.376,1.8,-8.47,8.24
0.377,-1.06,-7.06,3.8
0.378,-0.04,-1.88,5.88
0.379,1.77,-1.73,7.77
0.38,-0.04,-2.71,4.63
0.381,-1.06,-3.22,3.3
0.382,-0.2,-4.08,6.16
0.383,-2.94,-7.77,10.4
0.384,-1.18,-7.41,14.59
0.385,-3.37,-4,11.92
0.386,0.43,-4.98,13.02
0.387,-2.04,-0.9,12.08
0.388,-1.18,0.08,8.08
0.389,1.96,-2.51,4.71
0.39,-0.47,-0.2,2.94
0.391,0.75,-0.47,3.77
0.392,0.16,-0.24,4.51
0.393,-1.41,-8.24,11.34
0.394,-1.65,-0.35,17.22
0.395,1.37,-6.51,11.96
0.396,0.98,-9.38,6.51
0.397,0.08,-2.39,6.79
0.398,2,-1.29,6.16
0.399,1.26,-3.18,6.2
0.4,-1.18,-1.84,4.59
0.401,-1.29,-3.88,4.75
0.402,-1.41,-4.35,6.75
0.403,-3.26,-8.47,12.91
0.404,-2.43,-6.08,17.38
0.405,-3.69,-2.71,12.2
0.406,1.92,-4.16,12.24
0.407,-1.69,1.45,9.22
0.408,1.18,0.12,6.16
0.409,1.22,-1.26,4.39
0.41,0.16,-0.94,2.98
0.411,0.63,-0.43,3.26
0.412,0.75,0.12,4.71
0.413,-0.47,-8.43,11.65
0.414,-2.51,-2.9,14.12
0.415,0.04,-4.16,11.73
0.416,0.2,-7.06,3.88
0.417,-0.86,-0.78,6.59
0.418,0.75,1.26,6.63
0.419,0.59,-4.9,6.67
0.42,-1.37,0.27,7.22
0.421,-0.63,-2.55,6.83
0.422,0,-3.57,6.75
0.423,-2.04,-4.47,14
0.424,-2.98,-2.47,16.48
0.425,-0.27,-3.69,12.47
0.426,-1.26,-2.67,9.22
0.427,-1.22,0.75,8.63
0.428,0.63,-0.82,7.26
0.429,-0.39,-1.57,4.39
0.43,-0.51,-0.51,3.84
0.431,0.43,-0.86,3.88
0.432,1.57,-0.55,6.71
0.433,-0.47,-2.43,12.04
0.434,-1.06,-3.92,17.77
0.435,0.31,-3.1,12.24
0.436,0.9,-6.94,7.53
0.437,0.08,-4.2,13.02
0.438,0.94,-0.12,12.36
0.439,0.39,-2.59,5.37
0.44,0.31,-1.84,3.33
0.441,-1.06,-2.2,1.84
0.442,-0.27,-2.51,4.75
0.443,-3.65,-6.9,9.06
0.444,-2.16,-4.59,14.24
0.445,-3.14,-2.63,12.94
0.446,0.31,-7.34,16.12
0.447,-2.28,-0.63,12.94
0.448,0.63,-1.84,6.08
0.449,0.86,-1.29,2.94
0.45,-0.75,1.49,2
0.451,2.51,0.39,4.28
0.452,0.94,-1.49,5.33
0.453,-0.47,-3.53,11.26
0.454,-3.53,-1.18,11.06
0.455,1.57,-5.65,15.42
0.456,-1.18,-6.67,14.12
0.457,-2.86,-3.1,9.26
0.458,-0.59,-3.65,5.1
0.459,-2.31,-3.69,3.02
0.46,-0.86,-1.06,2.82
0.461,-2.24,-2.67,3.02
0.462,-2.28,-2.55,4.75
0.463,-2.75,-6.79,10.75
0.464,-1.41,-7.57,14.63
0.465,-5.26,-4.79,11.85
0.466,-0.51,-4.94,13.38
0.467,-2.75,-1.22,10.36
0.468,-0.59,-0.59,6.35
0.469,1.1,-1.02,4.75
0.47,-0.86,1.41,3.84
0.471,2.24,0.31,3.96
0.472,1.88,1.77,2.31
0.473,-0.43,-7.1,11.65
0.474,-2.39,3.33,14.32
0.475,-0.16,-5.1,11.89
0.476,0.63,-10.32,16.08
0.477,-1.69,1.26,14.28
0.478,0.08,-3.8,6.75
0.479,-1.41,-4.04,3.41
0.48,-0.59,-1.77,2.9
0.481,-2.79,-2.9,2.35
0.482,-1.84,-3.37,4.47
0.483,-2.43,-4.43,11.38
0.484,-4.28,-4.55,14.24
0.485,-2.59,-3.49,14.51
0.486,2.24,-5.26,12.08
0.487,-1.06,-3.3,7.65
0.488,-0.04,-0.04,5.33
0.489,0.47,1.8,5.18
0.49,0.59,0.47,5.22
0.491,2,-1.18,5.73
0.492,2.08,-1.77,6.39
0.493,1.18,-6.75,10.87
0.494,-1.69,-1.22,14.83
0.495,2.63,-3.06,11.34
0.496,4.24,-11.18,7.85
0.497,1.33,-0.86,13.06
0.498,-0.98,3.53,11.61
0.499,-0.94,-5.22,4.67
0.5,-1.65,-3.18,4.39
0.501,-1.22,-2.39,3.65
0.502,-0.78,-3.65,4.39
0.503,-2.51,-5.02,7.22
0.504,-2.43,-5.73,11.77
0.505,-4.16,-2.51,12.75
0.506,0.63,-3.45,13.96
0.507,0.94,-3.53,10
0.508,-0.2,-0.71,6.39
0.509,0.67,-0.75,5.14
0.51,0.2,-1.61,4.04
0.511,1.14,-0.94,5.02
0.512,1.92,-0.2,6.04
0.513,0.71,-8.36,9.89
0.514,-0.82,-2.59,16.36
0.515,-2.47,-0.04,13.38
0.516,3.73,-8.87,8.55
0.517,0.35,-4,4.94
0.518,0.31,-0.47,8.04
0.519,-0.9,-2.51,8.28
0.52,-1.69,-3.14,5.1
0.521,0.31,-2.98,4.28
0.522,-0.2,-2.86,5.81
0.523,-1.88,-6.47,10.28
0.524,-2.12,-5.92,15.73
0.525,-3.61,-3.57,12.32
0.526,0.31,-6,10.59
0.527,-0.75,-0.27,10.16
0.528,0.12,-0.04,6.55
0.529,0.71,-0.75,4.59
0.53,0.35,1.49,4.55
0.531,0.98,-0.2,5.96
0.532,2.55,1.88,7.18
0.533,0.51,-7.02,11.92
0.534,-2.43,-0.86,15.18
0.535,2.79,-5.69,11.3
0.536,2.39,-9.3,7.26
0.537,0.08,-1.69,7.81
0.538,0.2,-2.51,5.49
0.539,-0.75,-4.24,4.47
0.54,-1.14,-2.47,4.35
0.541,-1.02,-4.59,4.04
0.542,-2.51,-5.61,6.86
0.543,-3.49,-7.37,14.79
0.544,-2.9,-3.37,16.79
0.545,-0.59,-2.55,13.85
0.546,0.63,-4,8.67
0.547,-0.16,1.33,8.63
0.548,1.61,0.2,6.79
0.549,2.12,-1.57,5.06
0.55,0.08,0.39,4.94
0.551,0.59,0.78,5.33
0.552,2.2,-3.77,6.71
0.553,-0.55,-5.06,14.08
0.554,-1.18,0.82,15.02
0.555,5.18,-8.63,10.04
0.556,0.82,-7.53,5.33
0.557,-1.29,-1.18,6.04
0.558,-0.75,-3.45,6.04
0.559,-1.84,-3.3,4.79
0.56,-1.37,-4.63,3.3
0.561,-0.9,-4.04,5.02
0.562,-3.57,-8.67,10.08
0.563,-2.75,-7.61,15.69
0.564,-5.81,-2.12,16.08
0.565,2.28,-4.47,13.61
0.566,0.2,-1.77,10
0.567,0,1.41,6.98
0.568,1.37,-0.2,4.71
0.569,0.24,0.35,3.22
0.57,2.28,0.08,3.92
0.571,3.53,-1.22,5.88
0.572,0.82,-6.71,8.83
0.573,-1.18,-1.41,14.36
0.574,0.27,-4.43,13.73
0.575,2.63,-10.04,10.67
0.576,-1.61,-4.39,7.73
0.577,0.59,-2.51,6.24
0.578,0.08,-2.31,3.77
0.579,-0.75,-3.02,2.9
0.58,-1.65,-4.12,2.9
0.581,-1.61,-4.2,5.41
0.582,-2.28,-5.41,12.87
0.583,-1.37,-7.69,18.44
0.584,-3.02,0.24,19.18
0.585,2,-6.16,14.04
0.586,-1.22,-3.18,7.92
0.587,-0.31,-0.51,4.43
0.588,0.63,-0.16,1.84
0.589,0.9,0.47,1.41
0.59,1.14,0.51,2.35
0.591,1.41,0.27,3.22
0.592,1.65,-7.22,11.85
0.593,-0.82,1.33,14.79
0.594,1.14,-6.39,14.63
0.595,4.24,-10.75,12.83
0.596,-0.59,-3.92,9.22
0.597,1.06,-2.51,5.96
0.598,0.08,-3.77,2.47
0.599,-0.24,-4.08,2.16
0.6,-1.84,-3.37,3.57
0.601,-2.47,-4.12,6.51
0.602,-3.61,-7.06,13.65
0.603,-3.49,-6.67,17.02
0.604,-4,-2.82,15.93
0.605,4.12,-4.35,12.28
0.606,-1.37,-1.8,7.26
0.607,0.12,1.18,5.81
0.608,1.61,-0.27,4.16
0.609,0.71,-0.12,3.53
0.61,1.26,0.31,4.51
0.611,2.43,-1.02,5.81
0.612,0.08,-10.16,14.59
0.613,-1.02,-0.39,17.53
0.614,1.53,-7.37,10.55
0.615,-0.71,-7.57,4.35
0.616,-1.37,-3.18,4.47
0.617,1.06,-1.49,5.49
0.618,-0.9,-2.67,3.45
0.619,-1.1,-2.51,2.9
0.62,-1.14,-4,4.59
0.621,-2.08,-8.12,9.77
0.622,-3.8,-8.67,17.46
0.623,-6.83,-1.92,16.71
0.624,1.49,-4.94,12.47
0.625,-0.24,-4.86,8.12
0.626,-0.51,0.08,5.53
0.627,1.8,-0.98,3.96
0.628,0.78,-0.43,2.71
0.629,0.71,0.04,3.96
0.63,1.65,0.82,6.67
0.631,3.53,-3.53,8.16
0.632,1.26,-8.71,16.59
0.633,-1.96,-0.39,16.08
0.634,1.45,-7.77,9.1
0.635,2.39,-7.37,5.3
0.636,0.35,-1.92,6.39
0.637,0.9,-0.43,5.3
0.638,-0.55,-3.18,3.02
0.639,-2.24,-3.45,3.06
0.64,-1.37,-2.86,6.08
0.641,-2.31,-7.81,9.45
0.642,-3.73,-7.57,16.32
0.643,-4.79,-3.77,15.14
0.644,-0.78,-4.31,12.24
0.645,0.71,-5.1,9.85
0.646,-0.67,1.02,7.1
0.647,1.33,-0.71,5.14
0.648,2.24,0,4.04
0.649,0.82,-0.24,4.08
0.65,0.75,0.98,6
0.651,3.26,-4.71,8.2
0.652,1.22,-7.57,14.51
0.653,-0.35,-2.67,14.32
0.654,2.31,-6.59,9.53
0.655,1.1,-7.77,3.06
0.656,0.43,-2.04,6.12
0.657,-0.43,-1.02,5.22
0.658,-1.96,-3.1,4.39
0.659,-2.51,-2.28,4.59
0.66,-1.26,-4.16,7.49
0.661,-3.69,-9.57,13.02
0.662,-1.65,-6.47,17.57
0.663,-2.16,-4.39,15.22
0.664,2.82,-4.47,9.89
0.665,-0.94,-0.12,5.22
0.666,0.82,2.39,5.37
0.667,2.31,0.39,6.47
0.668,1.02,-0.16,5.33
0.669,1.61,-0.27,4.9
0.67,2.24,-0.94,6.24
0.671,3.8,-4.9,16.16
0.672,-2.9,0.27,15.93
0.673,1.14,-5.88,13.93
0.674,-0.55,-6.12,7.96
0.675,-2.28,-6.12,5.69
0.676,-3.8,-5.22,2.94
0.677,-2.9,-5.49,3.96
0.678,-5.1,-8.28,9.02
0.679,-0.82,-6.98,16.32
0.68,-1.92,-4.35,15.73
0.681,2.51,-3.65,11.38
0.682,0.63,-1.57,9.14
0.683,0.86,2.2,8.2
0.684,1.73,-0.04,5.88
0.685,1.02,0.12,4.16
0.686,2,0.67,4.28
0.687,2.63,-2.16,5.18
0.688,0.59,-6.47,12.16
0.689,0.2,-3.61,14.24
0.69,0.31,-7.88,10.12
0.691,0.82,-7.49,9.38
0.692,-1.88,-5.06,7.81
0.693,0.51,-6.16,4.71
0.694,-0.47,-5.84,2.55
0.695,-2.35,-3.33,2.28
0.696,-3.37,-3.73,2.75
0.697,-4.04,-7.06,6.51
0.698,-2.51,-11.26,16.63
0.699,0.04,-6.83,20.01
0.7,-0.71,-2.51,15.49
0.701,1.92,-4.82,8
0.702,-1.18,1.22,4.94
0.703,2.55,0.82,5.49
0.704,2.55,-0.27,4.82
0.705,1.1,0.12,4.86
0.706,1.53,0.31,5.69
0.707,2.55,-6.47,9.14
0.708,1.14,-2.75,14.12
0.709,-1.37,-3.22,12.67
0.71,1.73,-11.1,9.85
0.711,-0.67,-7.26,9.14
0.712,-1.41,-3.14,6.32
0.713,-1.37,-5.41,2.67
0.714,-2.59,-4.82,2.24
0.715,-3.22,-3.53,2.39
0.716,-3.1,-5.02,3.26
0.717,-4.51,-11.34,8.39
0.718,-0.63,-8.28,20.01
0.719,-2.31,-2.82,18.67
0.72,0.78,-3.65,11.57
0.721,0.71,-3.41,7.69
0.722,-0.04,1.69,6.55
0.723,2.43,-0.2,5.45
0.724,1.14,0.67,4.16
0.725,2.43,0.86,3.8
0.726,3.41,-0.67,4.55
0.727,2.43,-4.28,7.73
0.728,2.16,-6.83,13.93
0.729,-2.12,-5.37,12
0.73,1.02,-7.53,10.98
0.731,0.08,-8.16,8.9
0.732,-1.88,-4.75,6.35
0.733,-1.77,-4.43,3.77
0.734,-2.71,-5.81,3.57
0.735,-3.88,-4.04,3.1
0.736,-3.02,-6.04,4.63
0.737,-5.37,-9.77,8.98
0.738,1.33,-8.43,19.93
0.739,-0.86,-3.22,19.81
0.74,1.29,-1.88,11.96
0.741,1.57,-2.79,7.88
0.742,0.08,2.04,6.35
0.743,2.08,0.04,5.88
0.744,0.9,0.67,4.47
0.745,2.55,-0.27,4.04
0.746,2.51,0,4.51
0.747,1.88,-7.26,10.32
0.748,2.2,-5.14,14
0.749,-3.33,-5.84,10.79
0.75,2.16,-8.83,11.92
0.751,-1.49,-4.94,10.08
0.752,-1.73,-4.71,4.67
0.753,0.63,-6.43,2.24
0.754,-2.31,-4.24,1.92
0.755,-3.02,-2.71,1.69
0.756,-2.71,-5.57,4.47
0.757,-2.47,-11.61,14.4
0.758,0.08,-6.51,20.01
0.759,-3.33,-2.35,14.67
0.76,3.41,-7.06,11.89
0.761,-1.96,0.86,8.43
0.762,0.24,0.43,5.61
0.763,1.96,0.2,3.8
0.764,1.8,0.59,2.31
0.765,2.28,0.43,2.98
0.766,3.3,-2.31,6.9
0.767,-0.04,-6.71,13.93
0.768,-2.31,-0.71,14.51
0.769,4.71,-8.63,12.43
0.77,0.47,-8.83,7.61
0.771,-1.37,-2.04,7.34
0.772,-0.24,-3.1,6.24
0.773,-0.94,-5.3,4.35
0.774,-3.1,-3.8,3.22
0.775,-2.71,-5.77,5.69
0.776,-3.18,-9.57,10.71
0.777,-1.8,-5.84,20.01
0.778,-2.43,-2.94,17.1
0.779,2.71,-4,12.28
0.78,0.47,-3.8,5.81
0.781,-0.35,0.24,4.04
0.782,2.35,-0.08,3.61
0.783,0.78,0.78,3.14
0.784,2.2,-0.12,2.59
0.785,2.47,-0.9,3.69
0.786,3.18,-2.75,8.2
0.787,1.14,-7.37,15.89
0.788,-2.08,-2,15.06
0.789,2.86,-8.67,9.73
0.79,1.26,-11.18,7.53
0.791,-0.47,-3.3,7.57
0.792,-0.67,-3.45,4.86
0.793,-2.2,-3.61,4.08
0.794,-3.3,-3.37,3.41
0.795,-3.8,-4.59,4.16
0.796,-1.88,-7.22,7.26
0.797,-2.55,-7.53,14.36
0.798,-2.71,-6.12,14.95
0.799,0.43,-5.3,15.34
0.8,0.75,-3.3,13.26
0.801,-2.35,0.55,8.55
0.802,2.08,-1.29,5.02
0.803,2.24,-0.59,2.98
0.804,2,-0.75,2.16
0.805,1.18,0.47,4.79
0.806,2.86,-1.96,6.28
0.807,0.12,-7.53,13.42
0.808,-2.98,-3.3,12.04
0.809,3.41,-8.79,9.69
0.81,1.92,-8.87,6.39
0.811,-0.78,-3.26,5.41
0.812,-0.16,-2.9,5.57
0.813,-1.49,-3.26,3.22
0.814,-2.08,-3.77,3.33
0.815,-1.61,-4.51,5.73
0.816,-3.45,-8.16,11.26
0.817,-1.8,-7.1,19.85
0.818,-5.06,-1.73,16.28
0.819,2.9,-6.67,12.47
0.82,0.94,-4.47,9.65
0.821,-0.9,2,7.22
0.822,2.71,-1.06,5.81
0.823,1.22,0.31,4.24
0.824,1.37,0.04,3.33
0.825,2.12,0.2,4.59
0.826,3.1,-2.08,6.55
0.827,1.73,-10.4,12.43
0.828,-0.12,-2.51,15.38
0.829,0.27,-5.88,10.67
0.83,1.18,-7.57,5.69
0.831,-0.78,-5.1,3.37
0.832,-0.67,-2.2,4.16
0.833,-1.69,-3.88,3.69
0.834,-2.98,-4.67,3.84
0.835,-2.86,-4.12,6.04
0.836,-2.35,-9.3,11.85
0.837,0.55,-5.73,19.69
0.838,-1.8,-5.45,15.57
0.839,0.71,-4.28,12.43
0.84,1.02,-2.67,7.96
0.841,-0.39,0.35,5.88
0.842,2.51,0.12,6.16
0.843,2.12,-0.35,4.86
0.844,1.41,0.04,4.39
0.845,1.77,0,5.84
0.846,3.8,-2.12,8.83
0.847,1.49,-9.49,12.91
0.848,-1.02,-4.08,13.53
0.849,0.55,-4.9,9.65
0.85,0.98,-7.92,3.88
0.851,-1.41,-4.79,2.2
0.852,-0.51,-3.45,3.61
0.853,-1.18,-3.53,4.79
0.854,-3.96,-4.2,3.84
0.855,-1.53,-5.37,9.89
0.856,-1.73,-6.86,18.16
0.857,-0.08,-7.53,16.83
0.858,-1.49,-4.94,11.1
0.859,1.49,-5.3,8.2
0.86,-0.39,-0.75,7.92
0.861,-0.31,0.78,6.16
0.862,2.12,-1.14,4.24
0.863,2.31,-1.14,3.88
0.864,1.29,-0.35,5.37
0.865,3.1,-1.65,7.06
0.866,0.04,-10.98,13.77
0.867,-2.08,-2.79,15.49
0.868,0.2,-7.81,9.65
0.869,0.86,-8.51,3.37
0.87,-0.9,-5.22,2.2
0.871,-0.71,-2.47,3.69
0.872,-1.88,-3.02,3.02
0.873,-2.79,-4.39,3.53
0.874,-1.02,-4.12,7.26
0.875,-3.22,-10.32,12.51
0.876,-0.98,-8.39,18.12
0.877,-4.04,-4.55,12.98
0.878,2.59,-4.82,8.79
0.879,0.47,-1.69,5.88
0.88,-0.24,1.8,4.31
0.881,3.18,-0.86,5.02
0.882,0.94,-0.71,4.79
0.883,1.45,-0.86,6.86
0.884,3.49,-2.51,8.51
0.885,-0.2,-6.75,17.34
0.886,-1.33,-1.57,17.18
0.887,0.08,-7.49,9.34
0.888,0.94,-8.83,3.73
0.889,-0.94,-3.22,2.55
0.89,-0.43,-2.63,2.75
0.891,-1.57,-4.16,3.92
0.892,-3.49,-2.79,3.69
0.893,-1.41,-4.71,7.73
0.894,-4.28,-9.06,14
0.895,-2.16,-6.51,16.67
0.896,-4.39,-3.77,12.08
0.897,2.28,-5.02,9.14
0.898,-0.98,0.08,7.06
0.899,0.78,0.63,5.53
0.9,2.04,-2.24,5.02
0.901,0.55,-0.2,4.63
0.902,1.84,0.08,6.2
0.903,2.55,-0.67,6.75
0.904,-0.12,-9.1,14.83
0.905,-2.71,-0.39,19.18
0.906,0.75,-6.43,13.45
0.907,-0.9,-7.22,7.1
0.908,-0.12,-2.79,3.49
0.909,2.75,-4.39,4.47
0.91,-2.04,-4.12,2.71
0.911,-2.28,-4.98,3.92
0.912,-2,-4,5.88
0.913,-1.77,-8.98,11.02
0.914,-2.24,-5.49,18.71
0.915,-4.9,-3.14,15.34
0.916,2.47,-5.3,11.26
0.917,0.35,-2.12,7.69
0.918,0.04,1.02,5.49
0.919,3.26,-0.27,5.26
0.92,1.29,0.51,4.2
0.921,2.08,-0.43,4.08
0.922,1.8,-0.67,6.04
0.923,3.3,-4.04,9.38
0.924,0.08,-7.49,15.53
0.925,-2,-2.55,15.3
0.926,1.06,-7.81,9.06
0.927,1.22,-7.73,4.94
0.928,0.04,-3.57,3.37
0.929,-1.26,-2.63,3.53
0.93,-2.31,-4.2,3.22
0.931,-3.65,-4.86,4.31
0.932,-2.43,-4.51,7.81
0.933,-3.61,-10.71,14.75
0.934,-2.86,-4.08,17.5
0.935,-1.22,-2.35,12.79
0.936,3.1,-6.08,7.06
0.937,-0.9,-0.04,5.18
0.938,1.53,0.9,5.69
0.939,2.16,-0.04,5.26
0.94,0,-0.59,4.55
0.941,1.69,0.04,6.63
0.942,3.53,-6.08,9.89
0.943,0.55,-6.32,15.93
0.944,-1.77,-1.53,12.59
0.945,1.45,-10.12,6.35
0.946,-0.51,-5.33,6.67
0.947,-1.18,-1.18,5.81
0.948,-1.33,-4.39,3.57
0.949,-1.37,-3.3,3.22
0.95,-2.82,-4.63,2.75
0.951,-2.08,-4.79,8.04
0.952,-2.98,-9.77,13.93
0.953,-0.98,-8.98,18.79
0.954,-6,-2.63,12.71
0.955,1.84,-5.92,9.41
0.956,-1.33,0.43,7.96
0.957,-1.14,2.08,6.32
0.958,3.02,-1.18,4.39
0.959,0.55,-0.78,2.94
0.96,1.22,-0.47,5.88
0.961,2.9,-2.63,8.24
0.962,-1.69,-6.71,14.71
0.963,-2.63,-1.14,12.79
0.964,0.75,-8.39,7.92
0.965,0.39,-9.3,3.57
0.966,-1.41,-2.31,5.22
0.967,-0.71,-2.86,6.08
0.968,-2.75,-4.43,4.67
0.969,-2.04,-4.16,4.24
0.97,-1.1,-3.77,7.96
0.971,-4.79,-9.26,10.32
0.972,-1.96,-8.55,17.85
0.973,-5.06,-4.98,14.87
0.974,-1.22,-5.3,10.51
0.975,1.49,-3.92,8.59
0.976,-1.96,1.84,5.22
0.977,2.51,-0.67,3.92
0.978,1.84,0.2,3.57
0.979,1.06,1.41,3.84
0.98,2.08,-0.71,5.77
0.981,2,-9.06,11.14
0.982,-2.39,-5.37,14.63
0.983,-0.86,-4.35,12.2
0.984,0.35,-8.75,5.53
0.985,-0.94,-6.63,4.51
0.986,0.31,-0.55,9.45
0.987,-1.33,-3.57,6.79
0.988,-2.43,-4.63,3.69
0.989,-1.61,-4.2,4.9
0.99,-1.37,-4.51,7.45
0.991,-3.22,-8.71,14.95
0.992,-2.59,-6.28,16.48
0.993,-3.1,-3.49,10.98
0.994,1.92,-5.22,8.87
0.995,-1.22,0.27,7.22
0.996,0.78,1.18,5.81
0.997,3.53,-1.65,5.14
0.998,0.24,0.75,3.41
0.999,1.96,-0.43,4.75
1,3.02,-0.82,6.35
1.001,0.82,-9.73,12.87
1.002,-0.47,-3.53,17.22
1.003,-1.45,-6.71,12.04
1.004,0.98,-7.73,6.86
1.005,-0.9,-4.94,3.37
1.006,0.08,-3.06,5.18
1.007,-0.63,-2.86,4.82
1.008,-2.28,-3.65,2.86
1.009,-2.35,-4.12,4.2
1.01,-1.61,-5.1,8.83
1.011,-2.2,-10.94,18.04
1.012,-0.86,-6.86,17.73
1.013,-2.71,-5.81,8.94
1.014,0.75,-6.67,7.02
1.015,-1.69,-0.35,6.98
1.016,-1.22,2.51,5.37
1.017,2.51,-2.31,3.92
1.018,0,-0.35,2.63
1.019,1.65,0.63,4.28
1.02,2.9,-4.12,5.73
1.021,-0.9,-11.81,12.4
1.022,-0.59,-2.2,18.44
1.023,0.31,-9.69,11.96
1.024,0.08,-7.61,5.61
1.025,-0.82,-1.65,4.63
1.026,-0.12,-1.88,4.31
1.027,-1.06,-2.67,2.98
1.028,-2.16,-2.79,3.41
1.029,-1.69,-4.28,7.65
1.03,-1.88,-9.02,13.3
1.031,-0.27,-8.55,20.01
1.032,-2.98,-3.69,18.71
1.033,-0.2,-4.67,11.38
1.034,-0.9,-3.49,4.82
1.035,-0.2,0.94,3.1
1.036,2.04,0.86,3.26
1.037,1.73,-0.04,3.3
1.038,1.61,-0.98,4.04
1.039,0.39,0.63,5.81
1.04,3.1,-4.63,10.32
1.041,-0.31,-5.65,16.08
1.042,-1.96,-4.39,14.08
1.043,0.67,-9.38,8.59
1.044,-1.06,-6.35,4.28
1.045,-0.86,-2.67,4.08
1.046,0.47,-2.59,5.06
1.047,-0.2,-3.84,3.65
1.048,-2.67,-4.59,3.73
1.049,-0.9,-3.61,7.77
1.05,-3.37,-10.94,13.02
1.051,-0.94,-7.61,18.87
1.052,-4.24,-3.53,15.18
1.053,1.53,-4.35,10.12
1.054,-0.59,-2.04,6.16
1.055,0.12,1.06,5.14
1.056,2.9,0.12,4.79
1.057,0.82,-0.9,3.41
1.058,1.45,0.27,4.67
1.059,1.57,1.26,6.32
1.06,2.28,-7.88,9.89
1.061,-1.06,-4.43,17.53
1.062,-5.02,-3.8,12.43
1.063,1.88,-8.59,8.39
1.064,1.53,-7.49,6.71
1.065,-1.02,-0.59,6.24
1.066,-1.57,-2.86,2.82
1.067,-0.9,-3.49,1.57
1.068,-1.65,-3.06,2.04
1.069,-0.59,-4.67,5.61
1.07,-2.43,-10.94,12.36
1.071,-0.24,-6.39,19.85
1.072,-2.16,-5.57,14.47
1.073,1.37,-6.86,12.24
1.074,-0.39,-2.2,11.06
1.075,-0.16,0.75,7.18
1.076,1.77,0.2,4.04
1.077,1.22,-0.04,2.47
1.078,0.82,0.12,2.24
1.079,2.86,-0.16,4.67
1.08,1.06,-7.61,10.2
1.081,-0.55,-2.51,16.24
1.082,0.55,-7.37,12.87
1.083,2.51,-11.06,11.92
1.084,-0.82,-3.3,8.94
1.085,0.78,-3.18,7.69
1.086,-0.16,-3.57,4.9
1.087,-1.14,-5.14,1.77
1.088,-1.45,-5.69,1.96
1.089,-2.2,-3.77,3.45
1.09,-2.67,-6.32,10.47
1.091,-1.06,-6,18.48
1.092,-1.8,-2.55,18.95
1.093,0.71,-3.49,12.04
1.094,0.39,-1.29,6.86
1.095,0.75,-0.39,5.1
1.096,1.1,0.63,3.96
1.097,2.08,0.08,2.98
1.098,1.06,0.39,2.51
1.099,1.53,0.86,3.92
1.1,3.18,-0.51,5.3
1.101,1.92,-8,10.79
1.102,-0.27,-3.37,16.48
1.103,1.61,-3.88,15.53
1.104,2.98,-8.63,10.16
1.105,-0.08,-5.53,6.28
1.106,-0.47,-4.04,4.75
1.107,-1.88,-5.37,3.65
1.108,-3.06,-3.57,3.53
1.109,-3.14,-3.73,5.3
1.11,-1.77,-6.67,7.45
1.111,-2.2,-7.85,17.77
1.112,-4,-2.67,17.14
1.113,0.9,-4.43,11.1
1.114,2,-5.18,8.51
1.115,-1.1,1.77,4.9
1.116,1.57,0.12,4.24
1.117,2.31,0.63,4.67
1.118,1.88,0.51,4.04
1.119,4.39,1.22,4.55
1.12,6.98,-0.9,3.41
1.121,-0.43,-9.73,13.57
1.122,-0.16,1.02,19.26
1.123,1.22,-5.88,13.38
1.124,1.69,-6.39,8.67
1.125,-0.04,-3.45,5.3
1.126,-0.08,-3.84,3.88
1.127,-1.02,-4.2,2.16
1.128,-2.82,-3.53,2.04
1.129,-2.47,-4.24,5.18
1.13,-3.41,-9.85,11.06
1.131,-0.31,-6.83,19.77
1.132,-3.88,-3.3,15.38
1.133,0.31,-4.35,11.73
1.134,-0.39,-2.98,7.1
1.135,-0.31,0.78,5.37
1.136,2.9,-0.27,4.94
1.137,0.9,0.08,3.37
1.138,1.88,-0.12,3.1
1.139,1.84,-0.78,5.57
1.14,1.88,-6.35,9.89
1.141,-1.1,-4.39,16.32
1.142,-1.26,-3.92,16.08
1.143,2.98,-8.75,13.1
1.144,0.31,-4.51,10.87
1.145,-1.57,-3.02,7.65
1.146,-1.45,-4.04,2.67
1.147,-1.77,-3.33,0.08
1.148,-3.02,-3.45,-1.06
1.149,-1.29,-4.51,2.86
1.15,-1.61,-4.16,8.39
1.151,-4.31,-6.67,12.36
1.152,-1.88,-8.28,20.01
1.153,1.02,-3.61,19.65
1.154,-1.14,-3.41,9.45
1.155,1.02,-2.79,4.94
1.156,0.98,-0.31,1.96
1.157,1.88,-0.31,0.63
1.158,1.29,1.18,1.18
1.159,1.37,-0.59,2.9
1.16,1.96,-8.28,12.47
1.161,-0.86,-4.16,15.49
1.162,1.06,-7.41,15.89
1.163,2.59,-7.81,11.34
1.164,0.59,-3.02,8.67
1.165,-0.98,-3.22,4.2
1.166,-1.37,-4.16,1.88
1.167,-1.41,-2.75,1.41
1.168,-2.43,-3.26,0.63
1.169,-1.96,-5.65,4.75
1.17,-2.12,-10.08,15.26
1.171,-3.26,-3.3,18.24
1.172,-2.51,-2.55,14.24
1.173,1.88,-5.84,8.16
1.174,-0.75,-1.73,4
1.175,1.53,-0.43,5.26
1.176,0.9,0.51,5.84
1.177,1.33,-0.71,4
1.178,1.53,-1.14,2.51
1.179,0.94,0.98,3.61
1.18,2.16,-5.14,8.98
1.181,0.39,-8.12,13.93
1.182,-3.65,-4.12,16.83
1.183,3.1,-5.53,17.89
1.184,1.41,-8.94,10.9
1.185,-0.75,-2.08,8.39
1.186,-1.53,-3.8,3.88
1.187,-1.1,-5.18,2.2
1.188,-2.86,-5.69,1.53
1.189,-1.77,-3.45,6
1.19,-3.88,-9.22,13.49
1.191,-0.9,-6.9,18.44
1.192,-3.22,-3.22,14.36
1.193,2,-3.84,11.18
1.194,-0.71,-1.69,6.59
1.195,0.12,1.41,5.18
1.196,2.31,0,3.96
1.197,2.08,-0.08,3.33
1.198,1.77,-0.51,3.84
1.199,2.67,-1.84,7.06
1.2,0.75,-10.71,15.34
1.201,-0.59,-2.35,19.34
1.202,-0.16,-7.49,12.28
1.203,1.14,-7.49,6.59
1.204,-0.04,-4.08,3.37
1.205,0.55,-3.45,2.63
1.206,-0.78,-2.47,2.04
1.207,-2.28,-3.18,2.39
1.208,-1.96,-4.79,5.06
1.209,-2.16,-4.59,8.32
1.21,-2.63,-10.51,16.71
1.211,-1.18,-5.73,18.55
1.212,-1.53,-3.84,13.45
1.213,1.06,-4.75,8.04
1.214,-0.9,1.14,5.37
1.215,0.31,2.47,4.55
1.216,4.39,-1.92,3.88
1.217,1.53,-1.53,3.61
1.218,1.02,0.71,5.73
1.219,2.71,-5.92,8.94
1.22,0.04,-9.89,15.1
1.221,-2.67,-1.96,15.69
1.222,0.24,-9.38,10.16
1.223,1.84,-8.24,7.41
1.224,-0.31,-2.43,7.77
1.225,0.24,-2,6.94
1.226,-1.22,-3.92,2.47
1.227,-1.84,-4.86,2.12
1.228,-2.12,-4.75,6.04
1.229,-2.39,-7.1,11.49
1.23,-1.1,-8.28,17.1
1.231,-1.26,-5.06,17.1
1.232,-0.16,-1.92,11.85
1.233,-1.29,-1.33,6.24
1.234,0.43,1.29,3.96
1.235,2.12,0.75,3.02
1.236,1.45,-0.75,1.73
1.237,1.33,-0.31,2.67
1.238,1.61,0.2,6.24
1.239,2,-7.45,11.06
1.24,-1.02,-7.22,12.94
1.241,-1.06,-4.86,13.1
1.242,2.28,-8.39,11.57
1.243,-0.2,-4.59,8.16
1.244,-0.67,-3.37,5.18
1.245,-0.39,-4.55,4.51
1.246,-1.61,-2.55,3.84
1.247,-2.47,-3.84,4.24
1.248,-2.71,-5.3,6.47
1.249,-3.57,-7.81,17.3
1.25,-5.73,-4.28,16.32
1.251,-3.73,-2.94,11.53
1.252,2.94,-6,8.39
1.253,-1.92,0.27,5.3
1.254,1.96,1.14,4.47
1.255,2.59,0,3.88
1.256,0.9,0.78,4.47
1.257,2.04,0.51,5.18
1.258,3.37,-4.39,6.67
1.259,0.86,-8,16.79
1.26,-1.45,-0.67,19.18
1.261,0.55,-5.69,14.24
1.262,0.63,-7.57,6.16
1.263,-1.02,-4.12,2.43
1.264,-1.53,-3.33,3.37
1.265,-2.55,-2.59,4.12
1.266,-2.94,-3.88,3.06
1.267,-1.92,-4.39,6.59
1.268,-2.98,-10.36,13.96
1.269,-0.67,-7.26,19.57
1.27,-3.57,-2.59,14.24
1.271,0.24,-4.08,9.45
1.272,-0.47,-2.39,5.26
1.273,0.71,1.14,4.55
1.274,2.43,0.82,3.65
1.275,2,-0.43,3.92
1.276,1.57,0.43,7.02
1.277,2.43,-3.57,9.14
1.278,0.43,-7.3,16.12
1.279,-0.59,-1.41,15.06
1.28,0.2,-6.67,8.28
1.281,1.37,-6.94,5.33
1.282,0.47,-3.45,7.37
1.283,-1.53,-2.28,5.96
1.284,-1.45,-3.41,3.3
1.285,-1.53,-4.35,2.24
1.286,-1.8,-3.3,5.41
1.287,-3.77,-11.14,11.22
1.288,-3.3,-6.47,17.14
1.289,-5.77,-0.08,14.2
1.29,3.8,-6.43,12.16
1.291,-0.35,-1.06,8.55
1.292,0.55,1.06,6.39
1.293,2.16,-0.16,3.1
1.294,1.73,-0.86,2
1.295,1.65,0.63,2.75
1.296,1.73,-3.92,5.02
1.297,0.04,-9.77,11.26
1.298,-1.18,-4.35,18.67
1.299,1.1,-5.1,14.55
1.3,0.24,-8.36,5.81
1.301,0.82,-4.71,4.9
1.302,0,-2.08,5.18
1.303,-1.33,-3.53,3.26
1.304,-1.65,-3.33,3.14
1.305,-1.61,-2.63,3.73
1.306,-1.61,-6.55,6.12
1.307,-0.67,-8.59,17.02
1.308,-3.33,-4.39,18.44
1.309,0.35,-3.41,15.65
1.31,0.98,-2.94,11.85
1.311,-0.78,0.63,6.32
1.312,1.84,0.78,4.24
1.313,3.14,0,3.45
1.314,2.08,-0.47,1.92
1.315,1.8,-0.47,2.55
1.316,2.75,-3.49,6.28
1.317,1.02,-5.77,14.08
1.318,-1.53,-2.98,13.57
1.319,2.75,-7.18,11.34
1.32,1.77,-6.9,7.37
1.321,0.67,-3.77,5.92
1.322,-1.14,-2.71,3.69
51.99641,-2.39,-4.24,2.59
1.325,-2.31,-2.82,3.22
1.326,-3.33,-3.33,2.98
1.327,-0.75,-4.51,7.1
1.328,-0.31,-5.73,12.75
1.329,-1.06,-13.38,15.02
1.33,-0.71,-10.83,16.91
1.331,-1.22,-1.26,13.96
1.332,0.43,-2.59,13.85
1.333,0.04,1.06,10.32
1.334,2,-0.35,4.39
1.335,3.33,-2.67,2.79
1.336,0.47,1.45,3.88
1.337,2.16,-2.43,5.45
1.338,-0.98,-9.34,12.08
1.339,-3.3,-0.2,13.73
1.34,1.88,-8.28,9.22
1.341,1.96,-9.89,7.61
1.342,-2.51,-2.31,5.84
1.343,-2.08,-2.51,3.65
1.344,-1.96,-4.43,1.92
1.345,-3.45,-3.73,2.24
1.346,-2.08,-4.2,6.55
1.347,-3.41,-10.43,12
1.348,-2,-8,18.67
1.349,-4.16,-5.61,15.46
1.35,0.04,-4.16,11.41
1.351,-0.12,-3.49,6.63
1.352,-0.9,1.33,5.02
1.353,1.02,0.98,5.02
1.354,2.08,-0.08,5.06
1.355,2.51,-0.51,5.73
1.356,2.24,0.43,6.43
1.357,2.16,-7.73,9.3
1.358,0.04,-4.47,15.1
1.359,-0.98,-1.77,14.67
1.36,1.1,-6.83,11.1
1.361,0.35,-6.12,6.79
1.362,-1.33,-4.82,4.9
1.363,-0.82,-4.12,4.71
1.364,-1.57,-3.26,3.96
1.365,-2.63,-3.33,4
1.366,-1.06,-3.61,6.43
1.367,-3.14,-9.38,15.69
1.368,-0.94,-6.43,18.91
1.369,-2.51,-4.35,11.34
1.37,0.82,-4.39,8.9
1.371,-1.96,-0.24,7.1
1.372,-0.43,1.22,5.41
1.373,2.12,-1.41,4.63
1.374,1.65,-1.22,4.59
1.375,1.65,-0.59,6
1.376,3.3,-5.1,6.94
1.377,-2.59,-7.96,10.83
1.378,-2.82,-1.02,13.77
1.379,0.71,-8.24,10.67
1.38,1.53,-7.41,6.9
1.381,-0.31,-4,4.59
1.382,-1.53,-3.53,4.86
1.383,-2.94,-2.82,4.79
1.384,-2.43,-4.04,3.61
1.385,-2.08,-3.96,6.79
1.386,-4,-7.18,11.41
1.387,-1.88,-7.26,17.97
1.388,-5.57,-4.24,14.44
1.389,0.04,-5.18,11.61
1.39,-0.9,-1.29,7.85
1.391,-0.04,0.71,5.06
1.392,2.31,0.08,3.69
1.393,1.69,-0.24,2.75
1.394,2.24,0.12,3.3
1.395,2.55,-0.86,5.22
1.396,0.51,-8.12,13.65
1.397,-2.04,-2.24,17.81
1.398,-2,-5.61,14.55
1.399,1.57,-6.94,8.67
1.4,-1.02,-3.65,2.71
1.401,0.2,-1.69,4.39
1.402,-1.41,-2.86,3.61
1.403,-2.51,-3.06,3.37
1.404,-3.1,-3.14,4.35
1.405,-1.61,-5.18,7.3
1.406,-4.51,-9.45,15.69
1.407,-3.22,-6.63,20.01
1.408,-2.12,-3.37,16.95
1.409,-0.71,-4.12,10.04
1.41,0.31,0.78,6
1.411,1.69,1.1,3.53
1.412,1.49,0.78,2.31
1.413,2.04,0.39,2.67
1.414,2.82,-1.29,4.63
1.415,3.84,-1.45,8.39
1.416,0.75,-8.39,15.1
1.417,-1.33,-2.04,16.04
1.418,-0.35,-5.06,12.94
1.419,1.8,-7.61,7.1
1.42,0.39,-3.77,3.45
1.421,-0.39,-2.43,3.88
1.422,-1.53,-2.63,3.49
1.423,-3.73,-3.61,3.26
1.424,-3.18,-4.28,4.43
1.425,-3.69,-8.51,9.77
1.426,-1.14,-9.3,18.01
1.427,-1.69,-4.98,18.95
1.428,-0.08,-2.35,13.38
1.429,-0.24,-3.69,7.73
1.43,0.08,0.16,5.1
1.431,1.69,0.63,4.35
1.432,2.31,0.86,3.73
1.433,1.14,0.94,3.61
1.434,2.63,0.51,5.3
1.435,1.84,-5.14,12.16
1.436,1.1,-1.61,17.69
1.437,1.57,-4.2,16.32
1.438,3.92,-8.83,11.61
1.439,0.12,-5.41,5.92
1.44,-0.39,-3.45,3.92
1.441,-0.78,-3.41,3.49
1.442,-1.88,-2.86,2.79
1.443,-2.86,-3.8,2.59
1.444,-3.06,-5.06,6.2
1.445,-2.31,-8.24,14.24
1.446,0.35,-9.26,18.59
1.447,-2.28,-2.39,19.06
1.448,1.37,-3.1,12.4
1.449,-0.71,-1.06,6.63
1.45,1.53,0.94,5.49
1.451,2.47,1.8,4.63
1.452,2.55,-0.31,3.06
1.453,2.75,0,3.02
1.454,3.02,0.24,5.92
1.455,2.16,-6.16,9.3
1.456,0.75,-6.24,14.28
1.457,-1.49,-1.77,14.95
1.458,2.24,-8.71,11.3
1.459,0.78,-7.65,5.77
1.46,-0.55,-5.02,4.59
1.461,-0.9,-3.45,4.9
1.462,-2.75,-4.24,3.06
1.463,-2.75,-5.77,3.53
1.464,-3.73,-5.37,5.57
1.465,-5.33,-8.59,11.18
1.466,-0.59,-8.83,19.89
1.467,0.55,-3.84,20.01
1.468,2.47,-2.79,12.87
1.469,-0.31,0.47,5.92
1.47,1.53,1.53,3.88
1.471,1.77,0.94,1.84
1.472,1.37,1.45,0.86
1.473,2.31,0.47,2.12
1.474,3.3,-0.78,5.96
1.475,2.86,-7.57,13.06
1.476,1.8,-4.24,18.63
1.477,-0.63,-6.35,13.73
1.478,1.88,-7.3,10.63
1.479,-1.1,-5.45,7.41
1.48,-1.41,-5.33,5.57
1.481,-1.8,-5.22,2.82
1.482,-2.94,-5.18,0.63
1.483,-3.73,-4.98,0.51
1.484,-2.98,-5.49,3.06
1.485,-5.57,-8.16,9.77
1.486,-0.27,-9.65,18.04
1.487,-0.55,-6.24,18.28
1.488,2.16,-2.98,11.61
1.489,-0.47,0.71,7.1
1.49,0.63,1.49,5.57
1.491,1.69,0.12,4.31
1.492,2.35,0.39,4.24
1.493,3.69,-0.75,3.41
1.494,4.47,-2.59,5.73
1.495,1.96,-6.2,12.28
1.496,3.1,-2.47,18.01
1.497,1.45,-5.02,13.53
1.498,3.77,-8.28,10.43
1.499,2.31,-6,8.16
1.5,-0.63,-4.82,4
1.501,-2.16,-5.53,1.92
1.502,-3.69,-4.47,2
1.503,-4.75,-5.1,1.77
1.504,-3.84,-6.47,5.1
1.505,-4.28,-7.57,13.34
1.506,0.2,-6.9,20.01
1.507,2.79,-2.24,16.75
1.508,2,-2.43,9.41
1.509,0.82,0.63,5.26
1.51,1.77,1.61,3.92
1.511,2.47,1.29,3.57
1.512,3.18,0.43,3.41
1.513,3.8,-0.04,4.63
1.514,4.31,-3.73,8.39
1.515,4,-4.2,16.91
1.516,1.1,-1.8,16.67
1.517,1.73,-4.51,13.22
1.518,1.96,-7.69,9.1
1.519,0.67,-6.51,8.12
1.52,-0.08,-5.92,5.92
1.521,-2.24,-5.14,2.47
1.522,-2.63,-4.24,0.67
1.523,-3.53,-5.06,0.43
1.524,-2.59,-7.26,4.75
1.525,-2.82,-9.26,14.04
1.526,-4.31,-1.88,20.01
1.527,1.02,-2.67,15.53
1.528,0.24,-0.39,9.65
1.529,0.86,1.53,6.79
1.53,2,0.31,5.26
1.531,1.77,0.75,2.94
1.532,2.71,-0.12,3.14
1.533,3.96,0.43,4.55
1.534,2.86,-7.1,12.08
1.535,4.04,-2.55,19.81
1.536,-1.14,-1.8,17.18
1.537,0.04,-6.43,10.51
1.538,0.35,-6.51,6.04
1.539,-0.59,-4.9,3.37
1.54,-1.73,-5.18,1.69
1.541,-2.24,-3.88,3.18
1.542,-3.96,-4.24,2.59
1.543,-4.35,-6.39,7.14
1.544,-3.41,-9.73,14.04
1.545,0.2,-7.22,19.97
1.546,-0.24,-0.55,18.24
1.547,1.65,-0.55,9.92
1.548,-0.08,1.57,4.08
1.549,1.69,1.22,2.75
1.55,2.24,0.82,2.16
1.551,2.51,0.71,2.59
1.552,2.98,-0.47,4.75
1.553,3.57,-4.94,11.34
1.554,2.94,-5.1,18.63
1.555,0.51,-2.82,16.12
1.556,2,-7.02,11.26
1.557,1.8,-7.65,8.67
1.558,0.78,-5.33,7.18
1.559,-1.69,-5.1,3.61
1.56,-2.04,-4.82,2.2
1.561,-2.51,-2.79,1.88
1.562,-3.1,-4.47,2.98
1.563,-3.33,-7.34,8.2
1.564,-0.35,-8.36,17.5
1.565,0.12,-3.41,19.53
1.566,1.41,-2.28,11.38
1.567,0.82,-1.45,7.34
1.568,0.94,1.14,5.02
1.569,2.16,1.29,4.75
1.57,2.35,0,4.59
1.571,2.47,0.39,3.88
1.572,3.33,-1.18,5.26
1.573,4.04,-5.53,10.24
1.574,2.16,-4.12,16.48
1.575,-1.33,-3.57,14.24
1.576,3.14,-7.96,14.16
1.577,-0.43,-6.9,11.3
1.578,-0.98,-5.3,7.02
1.579,-1.65,-5.1,2.47
1.58,-1.53,-4.28,1.14
1.581,-2.67,-3.18,0.43
1.582,-2.31,-4.86,4.51
1.583,-4.12,-7.73,10.63
1.584,-1.41,-7.3,17.57
1.585,-0.16,-2.04,16.79
1.586,2,-2.98,10.08
1.587,0.9,-0.35,6.43
1.588,0.63,2,5.26
1.589,2.28,2.2,3.73
1.59,2.55,0.31,2.47
1.591,2.75,-0.75,2.82
1.592,4.86,-1.77,6.55
1.593,4.67,-7.88,13.57
1.594,4.59,-0.12,20.01
1.595,-1.77,2.51,13.69
1.596,4.55,-6.51,9.38
1.597,2.16,-7.02,7.14
1.598,1.29,-3.22,8.79
1.599,-1.06,-1.61,7.57
1.6,-1.88,-2.31,6.16
1.601,-1.8,-2.75,4.59
1.602,-1.18,-4.35,3.8
1.603,-1.88,-4.71,7.06
1.604,-4.75,-5.65,12.71
1.605,-0.12,0.51,17.61
1.606,-1.06,0.86,12.87
1.607,0.94,-3.14,9.22
1.608,1.26,-2.63,8.59
1.609,-0.39,-1.53,7.37
1.61,1.18,-1.06,7.18
1.611,1.22,-1.14,7.18
1.612,0.75,-0.43,6.24
1.613,1.18,-1.96,6.08
1.614,1.96,-3.3,7.81
1.615,-0.12,-4.28,7.77
1.616,0.71,-4.86,11.1
1.617,-0.51,-0.59,12.51
1.618,0,-2.2,9.69
1.619,1.45,-4.39,7.22
1.62,1.57,-4.79,6.86
1.621,0.86,-4.59,7.37
1.622,-0.04,-3.96,8.04
1.623,-0.67,-3.84,7.96
1.624,-0.59,-3.84,8.08
1.625,0.08,-4.04,7.88
1.626,0.94,-4.12,8.16
1.627,1.41,-4.16,8.32
1.628,2.39,-4.28,9.02
1.629,1.65,-3.61,8.43
1.63,1.33,-3.69,7.61
