NAME:,walking5,,
EXPERIMENT TIME:,05/06/2023 19:21,,
ACTIVITY TYPE:,Walking,,
COUNT OF ACTUAL STEPS:,155,,
,,,
Time [sec],ACC X,ACC Y,ACC Z
0.001,2.71,-1.96,8.12
0.002,2.63,-1.84,7.92
0.003,2.67,-2.08,7.77
0.004,2.59,-2.47,7.57
0.005,2.71,-2.47,7.73
0.006,2.63,-2.55,8
0.007,2.24,-2.98,8.94
0.008,2.35,-1.84,10.67
0.009,2.12,-1.96,9.77
0.01,2.04,-3.22,8.98
0.011,2.35,-3.02,10.2
0.012,2.16,-2.63,10.71
0.013,2.2,-2.47,10.04
0.014,1.65,-2.82,7.85
0.015,1.1,-2.86,7.26
0.016,0.94,-2.28,7.37
0.017,0.35,-2.35,6.9
0.018,-0.12,-2.59,6.55
0.019,0.27,-2.9,7.26
0.02,0.94,-3.02,7.69
0.021,1.18,-3.18,8.04
0.022,2,-3.1,8.24
0.023,1.65,-3.37,7.34
0.024,1.69,-3.57,7.22
0.025,2,-3.3,7.69
0.026,1.84,-3.49,7.41
0.027,2.08,-3.65,7.73
0.028,2.47,-4.24,9.69
0.029,4.08,-3.88,13.14
0.03,2.16,-0.55,13.34
0.031,2.2,-1.29,10.63
0.032,3.41,-2.55,9.14
0.033,2.67,-2.12,7.85
0.034,2.04,-2.04,6.79
0.035,1.33,-2.16,5.88
0.036,1.26,-2.2,5.22
0.037,1.92,-2.67,4.82
0.038,2.24,-2.9,5.88
0.039,2.35,-2.79,6.79
0.04,2.47,-2.63,7.81
0.041,2,-3.61,7.34
0.042,2.04,-4.43,8.79
0.043,2.47,-3.61,10.67
0.044,1.45,-4.59,10.47
0.045,0.59,-6.04,11.02
0.046,4.35,-4.75,15.22
0.047,3.33,-0.51,11.41
0.048,0.55,-3.33,7.53
0.049,3.1,-2.82,8.79
0.05,2.55,-1.69,8.43
0.051,1.73,-1.84,5.61
0.052,1.29,-2.31,4.2
0.053,0.67,-2.51,3.92
0.054,0.94,-3.26,4.94
0.055,1.69,-3.1,6.67
0.056,1.26,-2.63,7.02
0.057,1.45,-3.49,6.71
0.058,2,-4.08,7.88
0.059,2.47,-3.53,8.83
0.06,3.22,-6.12,11.49
0.061,6.59,-3.49,15.73
0.062,3.26,-2.04,12.43
0.063,4.35,-3.22,10.87
0.064,3.88,-2.63,8.79
0.065,1.77,-2.35,5.77
0.066,1.06,-2.67,4.39
0.067,0.35,-2.55,4.08
0.068,-0.35,-2.86,4.04
0.069,0.63,-3.65,5.33
0.07,0.59,-3.49,6.39
0.071,1.22,-2.82,8.59
0.072,2,-2.63,9.96
0.073,1.73,-3.53,8.75
0.074,2.12,-4.35,8.63
0.075,2.43,-6.63,12.75
0.076,4.82,-1.96,15.46
0.077,1.65,-2.43,10.51
0.078,1.22,-3.92,10.67
0.079,3.96,-1.92,11.69
0.08,2.55,-1.26,7.3
0.081,1.92,-1.57,4.43
0.082,0.51,-1.88,2.98
0.083,0.24,-2.16,3.22
0.084,0.82,-2.08,4.55
0.085,1.45,-2.08,5.65
0.086,1.45,-2.59,5.1
0.087,1.84,-3.41,5.18
0.088,2.71,-3.53,5.92
0.089,2.94,-3.49,6.51
0.09,3.18,-4.94,8.12
0.091,4.86,-4.82,13.81
0.092,4.04,-4.55,16.2
0.093,6.28,-4.28,16.36
0.094,6.63,-3.41,10.87
0.095,1.92,-4.08,7.14
0.096,1.73,-4,5.06
0.097,0.98,-2.98,4.9
0.098,0.35,-2.47,5.1
0.099,-0.08,-2.39,4.98
0.1,-0.08,-2.47,5.02
0.101,-0.35,-3.1,5.41
0.102,-0.27,-3.77,6.86
0.103,1.14,-3.96,9.85
0.104,0.82,-4.71,11.41
0.105,1.14,-5.92,16.67
0.106,4.82,-1.8,17.85
0.107,1.73,-2.67,11.3
0.108,2.47,-3.49,10.83
0.109,2.9,-1.84,10.12
0.11,2,-1.06,6.9
0.111,1.8,-1.65,5.18
0.112,0.94,-1.57,4.16
0.113,0.82,-2,3.8
0.114,1.33,-2.08,4.08
0.115,1.06,-2.2,4.79
0.116,1.77,-2.12,5.65
0.117,2.39,-2.51,6.79
0.118,2.51,-2.63,8.39
0.119,3.49,-5.14,9.26
0.12,5.33,-5.37,12.91
0.121,4.47,-2.28,11.92
0.122,2.55,-4.39,10.87
0.123,4.43,-3.77,10.9
0.124,2.47,-3.02,9.14
0.125,1.45,-3.1,5.77
0.126,0.82,-3.73,4.67
0.127,0.39,-2.86,5.06
0.001,0.31,-2.98,5.88
0.002,1.02,-3.22,6.59
0.003,0.86,-3.06,7.26
0.004,0.59,-2.98,8.28
0.005,1.41,-3.45,9.22
0.006,1.49,-4.2,9.73
0.007,1.69,-5.53,9.73
0.008,2.16,-6.51,14.55
0.009,3.92,-1.29,15.06
0.01,1.8,-2.75,10.83
0.011,2.31,-3.61,9.73
0.012,2.31,-2.08,9.92
0.013,2.39,-0.71,7.61
0.014,2.67,-0.98,6.39
0.015,0.71,-0.98,4.47
0.016,0.86,-1.53,3.88
0.017,1.18,-2.28,4.2
0.018,1.18,-2.51,4.63
0.019,1.88,-2.2,5.41
0.02,2.2,-2.24,6.16
0.021,2.71,-2.43,8
0.022,3.18,-3.96,8.2
0.023,4.98,-5.37,12.47
0.024,5.33,-1.61,13.96
0.025,4.24,-3.45,11.45
0.026,5.1,-4.59,10.98
0.027,3.84,-3.1,9.89
0.028,2.39,-2.31,7.81
0.029,1.29,-2.67,5.1
0.03,0.31,-2.47,3.96
0.031,0.27,-2.59,3.8
0.032,0.08,-3.26,4.35
0.033,0.2,-3.37,6.28
0.034,0.35,-3.33,7.57
0.035,0.71,-3.77,10
0.036,1.37,-5.49,13.85
0.037,4.55,-2.86,18.24
0.038,3.69,-1.8,14.28
0.039,2.75,-2.9,11.38
0.04,3.06,-2.59,9.26
0.041,2.24,-2.79,8.9
0.042,2.16,-1.41,9.14
0.043,1.88,-0.78,6.86
0.044,1.29,-1.45,4.2
0.045,1.49,-1.8,4.04
0.046,1.84,-1.57,4.51
0.047,1.22,-1.41,4.2
0.048,1.1,-1.41,4.39
0.049,1.84,-1.65,5.1
0.05,2.67,-1.84,7.22
0.051,3.73,-2.35,9.02
0.052,3.84,-4.59,10.94
0.053,5.3,-3.02,14.2
0.054,4.24,-1.96,13.02
0.055,5.84,-4.2,11.69
0.056,5.3,-4.39,9.38
0.057,2.94,-2.51,7.14
0.058,1.61,-2.35,5.81
0.059,1.26,-2.16,4.71
0.06,0.75,-2.86,4.2
0.061,0.82,-3.14,4.75
0.062,1.02,-3.18,5.77
0.063,0.75,-2.63,7.22
0.064,0.94,-3.26,8.9
0.065,1.69,-4,10.2
0.066,2.28,-4.28,11.96
0.067,2.59,-4.86,15.61
0.068,4.28,-0.39,15.53
0.069,2.47,-1.06,12.12
0.07,3.41,-2,9.81
0.071,3.14,-2,9.38
0.072,3.37,-0.71,8.87
0.073,2.16,-0.35,6.67
0.074,1.92,-1.26,4.35
0.075,2,-1.77,3.22
0.076,1.65,-2.47,3.18
0.077,1.22,-2.43,3.49
0.078,1.26,-2.31,4
0.079,2.51,-2.51,5.92
0.08,3.53,-2.31,8.83
0.081,4,-1.84,9.92
0.082,4.71,-4.9,12
0.083,5.22,-3.22,13.93
0.084,4.47,-2.39,12.12
0.085,5.49,-4.16,9.49
0.086,4.35,-3.96,7.77
0.087,2.63,-2.94,6.43
0.088,1.61,-2.35,5.06
0.089,1.02,-2.2,4.2
0.09,0.16,-2.98,3.37
0.091,0.71,-3.02,5.1
0.092,0.71,-3.02,6.43
0.093,1.22,-2.94,8.2
0.094,1.96,-3.49,10.51
0.095,2.39,-3.33,11.77
0.096,2.47,-5.37,12.36
0.097,4.67,-4.12,16
0.098,4.16,-0.9,12.55
0.099,2.12,-3.06,8.87
0.1,3.33,-2.51,9.89
0.101,2.94,-1.33,10.04
0.102,2.47,-0.98,6.94
0.103,2.47,-1.1,5.69
0.104,1.49,-0.9,4.35
0.105,1.49,-1.84,4.08
0.106,1.73,-2.16,4.35
0.107,1.57,-2.31,4.28
0.108,1.61,-2.35,4.9
0.109,1.92,-2.47,5.61
0.11,2.75,-2.63,7.96
0.111,4.75,-3.84,12.67
0.112,6.16,-2.08,15.69
0.113,4.55,-0.59,13.77
0.114,5.02,-2.2,11.3
0.115,4.28,-2.86,7.81
0.116,2.82,-3.14,4.94
0.117,1.84,-2.86,3.88
0.118,1.22,-2.67,3.96
0.119,0.55,-3.14,4.28
0.12,0.59,-3.69,5.22
0.121,1.92,-3.06,8.08
0.122,2.04,-1.96,10.28
0.123,1.77,-2.31,10.4
0.124,2.43,-3.33,10.47
0.125,2.2,-4.59,10.98
0.126,2.75,-7.22,15.85
0.127,5.77,-0.39,15.69
0.128,2.04,-1.06,10.75
0.129,1.73,-2.31,8.94
0.13,3.88,-1.45,9.38
0.131,2,-0.63,6.47
0.132,1.49,-1.14,4.59
0.133,0.71,-0.98,3.61
0.134,0.63,-1.45,3.88
0.135,0.98,-1.84,4.31
0.136,1.57,-2.08,5.33
0.137,2.12,-2.31,6.32
0.138,3.1,-2.47,7.92
0.139,3.73,-2.2,8.87
0.14,5.06,-3.92,10.55
0.141,6.39,-3.84,12.59
0.142,4.94,-2.35,12.75
0.143,6.86,-1.73,12.16
0.144,6.67,-2.71,9.38
0.145,4.28,-2.79,6.32
0.146,2.71,-2.67,4.31
0.147,1.77,-2.59,4.08
0.148,0.98,-2.51,4.08
0.149,1.02,-2.55,4.79
0.15,1.77,-2.79,5.92
0.151,2.12,-2.79,7.88
0.152,3.1,-2.79,10.16
0.153,4.39,-2.9,12.71
0.154,4.59,-3.49,13.14
0.155,5.84,-3.45,15.14
0.156,7.49,-1.49,15.38
0.157,4.35,-1.88,11.1
0.158,4.08,-1.37,10.16
0.159,3.33,-0.51,8.47
0.16,2.24,-0.55,7.22
0.161,2.04,-0.9,5.69
0.162,1.69,-1.02,5.37
0.163,1.61,-0.71,4.98
0.164,0.9,-0.86,3.73
0.165,0.63,-1.1,3.49
0.166,1.06,-0.98,4.28
0.167,1.41,-1.26,5.92
0.168,1.96,-1.57,7.57
0.169,3.41,-1.8,8.9
0.17,5.37,-2.47,10.08
0.171,6.71,-4.04,12.12
0.172,6.83,-3.96,13.69
0.173,6.12,-0.94,11.96
0.174,6.24,-1.49,8.24
0.175,4.79,-4,5.92
0.176,3.69,-3.06,5.3
0.177,3.33,-2.35,5.53
0.178,2.63,-2.51,4.16
0.179,1.18,-2.9,3.33
0.18,0.98,-2.35,3.92
0.181,1.84,-2.75,6.12
0.182,2.08,-2.55,8.32
0.183,1.61,-2.31,9.89
0.184,2.67,-3.18,11.85
0.185,3.18,-3.77,11.53
0.186,1.22,-6.55,12.04
0.187,4.2,-4.31,16.63
0.188,4.98,-1.77,13.45
0.189,2.12,-3.02,9.73
0.19,4.04,-2.12,7.96
0.191,3.49,-1.88,6.71
0.192,2.39,-0.67,5.26
0.193,0.75,-1.26,3.41
0.194,0.71,-1.57,3.02
0.195,0.82,-1.84,4.51
0.196,0.98,-1.53,5.41
0.197,1.41,-2.04,6.35
0.198,2.55,-1.61,7.73
0.199,3.65,-1.06,7.96
0.2,5.84,-2.28,7.85
0.201,6.2,-4.35,10.98
0.202,4.43,-1.02,13.65
0.203,3.8,-2.43,12.28
0.204,5.26,-4.16,11.65
0.205,3.49,-3.61,8.83
0.206,1.92,-2.9,5.77
0.207,1.06,-3.37,4.43
0.208,0.51,-3.1,4.47
0.209,0.78,-3.26,4.67
0.21,0.98,-3.14,6.28
0.211,1.53,-3.06,7.57
0.212,1.92,-2.82,8.28
0.213,2.39,-3.02,9.1
0.214,2.75,-3.69,9.73
0.215,2.75,-5.41,12.04
0.216,6.51,-2.55,17.73
0.217,4.63,-1.02,12.75
0.218,2.12,-2.08,9.26
0.219,4.04,-2.59,8.98
0.22,3.49,-1.69,8.51
0.221,1.92,-0.78,6.51
0.222,1.77,-1.61,4.82
0.223,1.29,-1.49,4.24
0.224,0.63,-1.45,3.65
0.225,1.22,-1.49,3.96
0.226,1.73,-1.33,5.14
0.227,1.84,-1.29,5.81
0.228,3.06,-1.69,7.69
0.229,4.28,-2.9,9.22
0.23,4.63,-4.04,11.92
0.231,7.85,-2.51,14.95
0.232,4.63,-1.33,11.18
0.233,5.1,-2.86,8.98
0.234,5.57,-3.57,8.12
0.235,3.33,-2.63,6.2
0.236,1.96,-2.55,5.18
0.237,1.45,-2.86,4.55
0.238,1.02,-2.75,5.02
0.239,1.22,-2.82,5.88
0.24,1.49,-2.98,7.57
0.241,1.96,-2.86,8.24
0.242,1.53,-3.3,8.9
0.243,2.47,-3.92,10.63
0.244,3.26,-4.59,11.65
0.245,1.88,-6.51,13.53
0.246,4.55,-2.2,15.89
0.247,2.86,-2.24,10.36
0.248,1.57,-3.77,8.75
0.249,2.86,-2.71,9.45
0.25,2.39,-1.37,8.2
0.251,1.65,-1.02,5.22
0.252,1.45,-1.88,4.35
0.253,0.98,-1.22,4.16
0.254,1.1,-1.69,4.55
0.255,1.77,-2.08,5.3
0.256,2.16,-1.57,5.53
0.257,2.75,-1.8,6.83
0.258,3.84,-2.16,7.85
0.259,4.47,-2.9,8.12
0.26,6.32,-4.16,12.24
0.261,6.55,-2.2,12.63
0.262,3.77,-1.96,10.16
0.263,4.55,-3.57,9.89
0.264,3.49,-3.26,9.02
0.265,3.06,-2.75,7.73
0.266,2.55,-2.94,5.84
0.267,1.53,-3.14,5.26
0.268,1.1,-2.63,5.1
0.269,1.29,-2.71,5.41
0.27,2,-2.9,6.71
0.271,2.39,-2.55,8.12
0.272,2.59,-2.43,9.1
0.273,3.65,-3.37,10.71
0.274,2.98,-5.02,11.1
0.275,3.41,-6.35,15.02
0.276,6.71,-0.9,16
0.277,2.79,-1.53,8.87
0.278,2.82,-3.14,7.77
0.279,4.12,-2.43,8.75
0.28,3.06,-0.78,7.81
0.281,1.57,-0.86,5.22
0.282,1.26,-1.14,4.43
0.283,0.9,-1.57,4.08
0.284,1.37,-1.8,4.67
0.285,1.53,-1.8,4.94
0.286,1.61,-2.16,5.33
0.287,2.43,-2.35,6.39
0.288,2.51,-2.51,7.3
0.289,3.69,-3.22,9.06
0.29,5.49,-4.59,13.06
0.291,6.12,-2.71,13.77
0.292,4.31,-1.45,11.49
0.293,5.84,-2.94,10.28
0.294,4.9,-3.14,7.73
0.295,3.1,-2.75,5.22
0.296,2.16,-2.55,4.39
0.297,0.55,-2.47,3.37
0.298,-0.47,-2.55,3.06
0.299,0.04,-2.63,4.86
0.3,0.82,-2.75,7.49
0.301,1.73,-2.51,10.75
0.302,2.67,-2.71,12.04
0.303,2.86,-3.65,12.4
0.304,3.8,-5.57,16.51
0.305,6,0.35,17.38
0.306,3.96,0.27,12.08
0.307,2.24,-2.31,8
0.308,1.69,-1.53,7.96
0.309,2.67,-0.12,8.43
0.31,1.65,-0.12,6.86
0.311,0.51,-1.57,4.51
0.312,0.71,-1.69,4.16
0.313,1.22,-1.18,4.71
0.314,0.98,-0.63,5.02
0.315,1.69,-1.26,5.02
0.316,2.71,-2.24,6
0.317,3.41,-1.53,7.81
0.318,4.28,-1.45,8.75
0.319,5.18,-3.02,10.36
0.32,6.79,-2.31,13.65
0.321,5.02,-0.51,11.53
0.322,4.31,-2.75,9.3
0.323,4.43,-3.06,8.2
0.324,2.86,-2.51,7.37
0.325,2.79,-2.28,7.22
0.326,1.84,-2.16,6.32
0.327,0.86,-2.24,5.33
0.328,0.94,-2.51,5.81
0.329,1.49,-2.51,6.51
0.33,1.61,-2.67,7.3
0.331,2.2,-2.67,8.87
0.332,3.02,-2.67,10.79
0.333,3.45,-2.94,11.41
0.334,2.63,-5.26,12.28
0.335,5.14,-1.57,15.1
0.336,3.06,-1.26,10.24
0.337,1.77,-2.82,8.55
0.338,3.45,-2.47,10.28
0.339,2.71,-0.63,8.63
0.34,2.12,-0.86,5.69
0.341,1.8,-1.26,4.43
0.342,1.53,-1.49,4.2
0.343,1.26,-1.53,4.47
0.344,1.14,-1.57,4.75
0.345,1.69,-1.92,5.45
0.346,2.47,-1.77,6.67
0.347,3.18,-1.61,7.85
0.348,3.26,-1.92,8.71
0.349,4.82,-3.33,11.45
0.35,5.77,-2.08,13.34
0.351,4.39,-0.59,12.12
0.352,5.26,-2.55,10.59
0.353,4.98,-3.8,9.02
0.354,3.53,-2.9,7.69
0.355,2.51,-2.43,6.24
0.356,1.77,-2.63,5.49
0.357,1.22,-2.47,5.1
0.358,1.02,-2.47,5.33
0.359,1.45,-3.26,6.43
0.36,1.49,-2.94,7.45
0.361,1.29,-3.02,8.36
0.362,1.84,-3.22,9.69
0.363,2.59,-3.14,10.9
0.364,2.12,-5.02,11.22
0.365,4.04,-3.37,14.83
0.366,3.49,-0.39,11.85
0.367,2.51,-2.79,9.1
0.368,4.16,-3.57,10.43
0.369,3.8,-1.22,9.77
0.37,2.51,-0.71,6.83
0.371,2.31,-0.86,4.82
0.372,1.73,-1.33,4
0.373,1.06,-1.26,3.45
0.374,1.53,-1.49,3.92
0.375,1.88,-1.45,4.59
0.376,1.92,-1.49,5.81
0.377,2.82,-1.49,7.18
0.378,3.49,-2.04,8.32
0.379,5.53,-4.08,11.81
0.38,6.55,-1.41,13.85
0.381,4.31,-0.35,11.96
0.382,5.18,-2,11.45
0.383,5.02,-2.59,9.06
0.384,3.37,-2.82,6.43
0.385,2.75,-3.02,5.26
0.386,1.69,-2.71,5.06
0.387,0.9,-2.51,5.06
0.388,0.75,-3.06,5.33
0.389,1.84,-2.9,7.41
0.39,1.61,-2.47,8.71
0.391,1.65,-3.1,8.94
0.392,2.43,-3.1,10.36
0.393,2.79,-3.22,10.51
0.394,1.29,-5.49,10.51
0.395,2.9,-3.41,15.1
0.396,4.55,-0.51,13.77
0.397,2.63,-2.94,11.22
0.398,4.35,-1.84,11.69
0.399,3.41,-0.24,8.94
0.4,2.47,-0.51,5.88
0.401,2.16,-1.22,3.14
0.402,0.94,-1.69,2.12
0.403,1.02,-1.65,2.94
0.404,2.28,-1.1,5.02
0.405,2.43,-0.27,5.88
0.406,2.98,-0.94,6.59
0.407,3.73,-1.45,7.81
0.408,5.14,-2.59,10.2
0.409,5.77,-2.47,12.47
0.41,4.08,-0.9,12.04
0.411,5.41,-2.63,12.08
0.412,4.55,-3.49,9.77
0.413,2.79,-3.33,7.96
0.414,2.47,-3.33,7.3
0.415,1.65,-3.37,6.51
0.416,1.22,-2.79,6.2
0.417,1.41,-2.59,6.43
0.418,1.88,-2.47,6.86
0.419,1.77,-2.82,6.9
0.42,2.2,-2.94,7.57
0.421,2.98,-3.33,9.77
0.422,2.75,-3.61,10.4
0.423,2.79,-5.65,14.28
0.424,6.51,0.47,15.57
0.425,3.22,-0.67,9.77
0.426,3.65,-1.84,9.85
0.427,5.02,-1.26,10.79
0.428,3.33,-0.2,8.51
0.429,2.51,-1.1,6
0.43,2.35,-1.37,5.06
0.431,2.08,-1.65,4.28
0.432,1.61,-1.65,4
0.433,1.41,-1.49,4.39
0.434,1.33,-1.8,4.79
0.435,1.37,-1.88,5.57
0.436,2.51,-2.39,7.49
0.437,3.18,-2.2,9.73
0.438,4.94,-2.43,12.36
0.439,4.94,-1.92,13.61
0.44,4.82,-0.08,13.26
0.441,5.37,-0.43,10.87
0.442,5.81,-2.47,8.55
0.443,3.33,-2.43,6.63
0.444,2.47,-2.12,5.96
0.445,1.96,-3.1,5.3
0.446,1.69,-3.06,4.94
0.447,1.57,-2.79,5.26
0.448,1.57,-3.41,6.24
0.449,2.59,-2.51,8.75
0.45,3.41,-2.31,9.89
0.451,3.88,-2.86,10.2
0.452,3.84,-5.53,12.55
0.453,5.49,-1.53,16.12
0.454,5.73,-1.1,13.65
0.455,3.02,-2.35,10.94
0.456,1.88,-0.86,9.3
0.457,2.24,-1.41,8.71
0.458,2.63,-1.29,7.77
0.459,1.37,-0.55,5.49
0.46,1.22,-0.75,4.16
0.461,1.18,-0.63,3.92
0.462,0.86,-0.78,3.84
0.463,0.67,-1.45,4.04
0.464,1.22,-2.39,4.82
0.465,2.12,-2.79,6.28
0.466,3.02,-2.08,7.57
0.467,3.18,-2.67,7.92
0.468,4.31,-3.57,8.79
0.469,6.86,-3.37,13.57
0.47,6.59,-0.04,11.22
0.471,4.67,-2.51,8.59
0.472,6.12,-5.02,9.26
0.473,3.8,-2.71,8.59
0.474,3.06,-1.69,7.49
0.475,2.04,-2.98,5.57
0.476,1.53,-2.9,5.22
0.477,1.49,-2.94,5.26
0.478,2.2,-3.33,6.04
0.479,2.04,-3.18,7.02
0.48,2.28,-3.37,8.39
0.481,3.33,-3.53,10.75
0.482,3.1,-3.53,10.98
0.483,2.94,-5.49,13.18
0.484,5.69,-2.28,15.34
0.485,4.12,-0.59,10.98
0.486,2.28,-2.35,8.43
0.487,4.35,-2.67,9.57
0.488,4.08,-1.49,9.38
0.489,2.24,-0.75,6.55
0.49,2.2,-0.75,5.41
0.491,2,-1.45,4.51
0.492,1.33,-1.37,4.35
0.493,1.49,-1.69,4.79
0.494,1.37,-1.29,4.98
0.495,1.49,-1.69,5.41
0.496,2.35,-1.88,6.75
0.497,3.41,-1.88,8
0.498,3.92,-3.22,8.94
0.499,6.98,-3.22,14.75
0.5,6.2,-0.47,13.02
0.501,4.82,-1.22,10.83
0.502,6.04,-3.37,9.06
0.503,3.61,-2.86,7.02
0.504,2.47,-2.24,5.81
0.505,1.49,-2.51,4.94
0.506,1.06,-2.63,4.79
0.507,1.57,-2.63,5.88
0.508,1.92,-2.47,7.14
0.509,2.24,-2.28,8.39
0.51,2.31,-2.08,9.38
0.511,2.86,-2.55,10.08
0.512,3.61,-2.94,10.32
0.513,3.84,-4,12.28
0.514,5.81,-1.53,15.1
0.515,3.96,-0.24,11.96
0.516,2.43,-2.24,9.45
0.517,4.2,-2.12,11.3
0.518,2.98,-0.35,9.81
0.519,2.12,-0.39,7.1
0.52,1.65,-1.22,4.75
0.521,0.86,-1.18,4.43
0.522,1.41,-0.59,5.02
0.523,1.96,-0.98,5.81
0.524,1.53,-0.67,5.73
0.525,1.88,-1.45,5.61
0.526,3.41,-1.26,6.79
0.527,3.3,-2.04,6.9
0.528,4.2,-3.45,8.39
0.529,7.34,-1.88,13.49
0.53,4.67,0.12,10.9
0.531,5.45,-3.18,9.02
0.532,6.39,-4.31,8.67
0.533,3.45,-3.02,7.65
0.534,2.86,-2.31,7.02
0.535,2.35,-2.51,6.24
0.536,1.33,-2.31,5.61
0.537,1.26,-2.63,6
0.538,1.61,-2.63,6.86
0.539,1.96,-2.16,8.32
0.54,2.47,-2.28,9.41
0.541,2.94,-2.71,9.85
0.542,3.92,-3.33,10.83
0.543,3.14,-4.63,11.61
0.544,5.49,-1.88,14.91
0.545,4.43,0.31,12.55
0.546,1.06,-1.06,6.86
0.547,1.37,-2.9,6.98
0.548,2.43,-2.63,9.41
0.549,3.84,-0.43,11.1
0.55,2.71,-0.75,7.37
0.551,1.73,-2.08,4.79
0.552,1.69,-1.84,4.71
0.553,1.53,-1.02,4.71
0.554,1.96,-1.41,5.26
0.555,1.69,-1.26,5.33
0.556,2.67,-1.45,6.63
0.557,4.2,-1.22,8.28
0.558,4.71,-1.92,8.39
0.559,5.61,-3.06,11.18
0.56,5.53,-0.75,12.2
0.561,5.06,-0.51,10.67
0.562,5.37,-1.49,9.1
0.563,5.14,-3.1,7.02
0.564,3.45,-2.94,5.53
0.565,3.06,-2.47,5.69
0.566,2.28,-2.39,5.65
0.567,1.84,-2.47,5.96
0.568,1.84,-2.51,6.75
0.569,2.51,-2.31,8.36
0.57,2.71,-1.88,9.06
0.571,2.47,-2.24,8.98
0.572,3.1,-3.18,9.45
0.573,3.33,-3.96,10.67
0.574,3.69,-4.12,14.2
0.575,6,-1.02,15.89
0.576,3.92,0.31,10.83
0.577,1.37,-2.04,6.71
0.578,1.88,-2.51,7.57
0.579,3.3,-0.9,9.81
0.58,2.39,0.12,8.2
0.581,1.49,-1.02,6.08
0.582,1.49,-1.37,5.61
0.583,1.69,-0.75,5.41
0.584,1.96,-0.71,5.41
0.585,1.84,-0.78,5.3
0.586,2.24,-1.29,5.81
0.587,3.65,-1.45,7.37
0.588,4.98,-1.53,8.55
0.589,5.53,-2.31,10.4
0.59,7.34,-2.04,12.24
0.591,5.37,-0.43,10.63
0.592,5.18,-1.77,9.3
0.593,5.88,-3.06,8.08
0.594,4.98,-3.18,6.28
0.595,3.65,-3.14,5.92
0.596,2.75,-2.51,5.77
0.597,2.2,-2.39,5.96
0.598,2.31,-2.59,6.47
0.599,2.67,-2.31,7.34
0.6,2.24,-2.04,8.2
0.601,2.39,-2.08,8.63
0.602,3.33,-2.28,9.45
0.603,3.41,-3.37,9.92
0.604,2.9,-4.82,11.73
0.605,6.98,-1.14,16.04
0.606,4.43,0.98,10.71
0.607,2.24,-1.61,6.83
0.608,3.18,-2.59,7.41
0.609,4.2,-1.26,9.53
0.61,3.45,0.16,7.88
0.611,2.71,-0.59,5.77
0.612,2.28,-1.41,4.31
0.613,2.31,-1.65,4.47
0.614,2.28,-1.14,4.9
0.615,2.35,-1.26,5.22
0.616,2.75,-1.65,5.96
0.617,3.65,-1.26,6.79
0.618,4.51,-1.33,7.85
0.619,5.81,-2.08,10.9
0.62,7.26,-1.1,12.47
0.621,4.79,1.22,11.22
0.622,5.53,-1.1,9.92
0.623,6.16,-2.9,8.63
0.624,4.43,-2.63,7.61
0.625,3.26,-1.88,7.14
0.626,2.98,-1.96,6.32
0.627,2.08,-2.16,5.53
0.628,1.73,-2.31,5.65
0.629,1.84,-2.39,6.43
0.63,1.88,-2.31,7.06
0.631,2,-2.67,7.73
0.632,1.84,-2.75,8.98
0.633,2.82,-2.79,10.59
0.634,2.08,-4,10.63
0.635,3.1,-3.88,14.55
0.636,5.02,0.2,14.63
0.637,2.75,-0.94,10.36
0.638,2.08,-2.98,8.83
0.639,4.47,-1.8,11.22
0.64,3.8,-0.43,9.49
0.641,2.24,-0.82,6.32
0.642,1.65,-1.45,4.59
0.643,1.53,-1.49,4.79
0.644,1.49,-1.22,4.75
0.645,1.73,-1.26,4.82
0.646,1.53,-1.33,4.71
0.647,1.92,-1.57,5.14
0.648,3.49,-1.73,6.83
0.649,4.51,-1.96,8.36
0.65,5.92,-2.28,11.89
0.651,6.32,-0.55,13.14
0.652,4.94,-1.02,11.18
0.653,6.08,-2.67,10
0.654,5.22,-3.06,8.9
0.655,3.92,-2.35,7.34
0.656,3.22,-2.47,6.24
0.657,2.24,-2.59,5.49
0.658,1.49,-2.67,5.1
0.659,1.65,-2.59,5.57
0.66,2.04,-2.63,7.14
0.661,2.12,-2.12,8.16
0.662,1.96,-1.96,8.67
0.663,2.31,-2.75,9.34
0.664,3.33,-2.79,10.79
0.665,2.51,-4.98,13.1
0.666,5.88,-1.14,15.81
0.667,3.61,-0.71,11.49
0.668,2.94,-1.8,9.89
0.669,3.61,-2.12,10.32
0.67,3.1,-0.55,8.9
0.671,2.55,-0.55,6.12
0.672,2.2,-0.75,4.94
0.673,1.37,-0.86,4.2
0.674,1.84,-1.77,4.39
0.675,2.24,-2.12,4.79
0.676,2.16,-1.96,5.22
0.677,2.67,-1.73,6.24
0.678,3.1,-1.8,6.9
0.679,3.92,-2.28,7.77
0.68,5.3,-4.35,10.71
0.681,5.84,-2.2,13.22
0.682,5.1,-0.31,12.91
0.683,4.94,-2.24,10.32
0.684,4.12,-3.1,7.69
0.685,2.94,-2.47,6.67
0.686,2.2,-1.96,5.84
0.687,1.92,-2.04,5.73
0.688,1.18,-2.16,5.3
0.689,0.98,-2.55,5.61
0.69,2.28,-3.22,7.37
0.691,2.59,-2.63,9.22
0.692,2.31,-2.04,9.34
0.693,2.35,-3.02,9.45
0.694,3.06,-3.53,10.24
0.695,2.75,-5.65,10.75
0.696,4.47,-4.94,16.71
0.697,4.24,0.71,14.67
0.698,1.41,-0.24,9.73
0.699,0.35,-2.47,6.67
0.7,2.04,-1.61,7.85
0.701,2.86,-1.06,8.67
0.702,2.2,-0.82,7.22
0.703,0.94,-1.69,4.94
0.704,1.45,-1.88,4.82
0.705,1.84,-1.84,5.1
0.706,1.65,-1.41,5.57
0.707,1.96,-1.49,6.08
0.708,2.2,-1.84,6.55
0.709,3.77,-1.61,8.16
0.71,4.71,-2.12,8.83
0.711,5.65,-3.3,11.65
0.712,7.1,-1.37,13.3
0.713,5.26,0.12,10.32
0.714,5.96,-2.35,8
0.715,5.18,-2.98,6.94
0.716,3.26,-1.8,5.96
0.717,3.06,-1.77,5.92
0.718,2.59,-1.65,5.88
0.719,2.2,-1.8,5.81
0.72,2.51,-2.08,6.9
0.721,2.55,-2.12,7.69
0.722,2.43,-1.96,8.59
0.723,2.16,-2.67,8.51
0.724,2.28,-3.37,9.26
0.725,3.22,-3.06,11.26
0.726,2.35,-5.14,12.43
0.727,4.98,-2.43,16.12
0.728,4.2,0.12,13.14
0.729,1.37,-1.77,7.81
0.73,3.06,-2.47,8.32
0.731,2.94,-1.61,9.14
0.732,1.84,-0.39,7.81
0.733,1.92,-0.71,5.65
0.734,1.57,-1.65,4.55
0.735,2.04,-1.45,4.31
0.736,2.2,-1.53,4.9
0.737,1.73,-1.33,5.1
0.738,2.51,-1.22,5.96
0.739,2.98,-1.57,6.9
0.74,4.35,-2,8.28
0.741,5.22,-3.69,9.61
0.742,6.75,-2.67,14.08
0.743,5.45,0.31,12.16
0.744,4.2,-1.77,9.53
0.745,4.63,-3.26,7.61
0.746,2.98,-2.82,6.59
0.747,2.47,-2,6.71
0.748,1.84,-2.24,6.43
0.749,1.22,-2.16,6.2
0.75,1.1,-2.08,6.2
0.751,1.26,-2.43,6.71
0.752,1.8,-2.59,7.61
0.753,2.24,-2.79,8.08
0.754,1.84,-2.82,8.94
0.755,3.1,-3.41,10.51
0.756,3.3,-5.65,13.18
0.757,4.63,-2.67,15.81
0.758,4.75,-0.04,13.14
0.759,2.98,-1.65,8.9
0.76,3.26,-2.55,8.55
0.761,4.04,-1.37,9.61
0.762,3.33,-0.16,8.04
0.763,2.04,-0.59,4.82
0.764,1.92,-1.18,3.77
0.765,1.65,-2.12,4
0.766,2.04,-1.18,4.59
0.767,2.59,-1.65,5.57
0.768,2.43,-1.26,5.92
0.769,3.8,-1.69,7.18
0.77,4.39,-1.84,7.65
0.771,4.9,-3.69,9.92
0.772,7.14,-1.61,13.42
0.773,6.2,0.08,12.59
0.774,4.28,-1.26,9.61
0.775,6,-3.33,7.81
0.776,4.75,-3.22,6.98
0.777,3.3,-1.92,6
0.778,2.59,-2.39,5.45
0.779,1.69,-2.55,5.1
0.78,1.73,-2.51,5.77
0.781,2.43,-2.86,6.94
0.782,2.39,-2.55,8.43
0.783,2.04,-2.24,8.94
0.784,1.96,-2.31,9.18
0.785,2.86,-3.41,9.85
0.786,2.71,-4.9,11.1
0.787,4.94,-2.39,16
0.788,4.59,-0.27,13.02
0.789,2.51,-2,8.51
0.79,2.75,-2.94,8.55
0.791,4.35,-2.16,10.08
0.792,3.22,-1.18,7.88
0.793,2.2,-1.33,5.57
0.794,1.53,-1.45,4
0.795,1.37,-1.26,4.16
0.796,1.73,-0.98,4.86
0.797,2.43,-1.49,5.37
0.798,2.79,-1.57,5.69
0.799,3.77,-1.84,6.67
0.8,4.47,-1.22,7.61
0.801,5.37,-2.94,8.59
0.802,7.22,-2.2,12.28
0.803,5.77,-0.43,11.26
0.804,4.75,-1.88,9.69
0.805,6.04,-2.55,9.26
0.806,4.55,-2.59,8
0.807,3.22,-2.39,6.24
0.808,2.86,-3.18,5.49
0.809,2.24,-3.14,5.57
0.81,2.08,-3.06,6.12
0.811,2.24,-3.1,7.06
0.812,2.35,-2.55,8.24
0.813,2.04,-2.2,8.55
0.814,2.12,-2.67,8.79
0.815,3.26,-3.37,10.4
0.816,2.75,-4.98,11.22
0.817,5.18,-2.24,15.97
0.818,5.26,0,13.81
0.819,2.67,-1.69,8.98
0.82,3.02,-2,8
0.821,4.2,-1.57,8.83
0.822,3.49,-0.78,8.04
0.823,2.71,-0.94,6.51
0.824,2.24,-1.26,4.59
0.825,1.73,-1.53,4.16
0.826,1.96,-1.33,4.35
0.827,2.59,-1.73,5.1
0.828,2.35,-1.73,5.37
0.829,2.55,-1.41,5.73
0.83,3.57,-2.31,6.79
0.831,4.35,-2.08,7.73
0.832,4.82,-3.3,8.39
0.833,7.22,-3.37,12.28
0.834,5.96,-0.75,11.1
0.835,4.12,-1.84,8.12
0.836,5.45,-3.14,7.53
0.837,4.67,-3.77,7.18
0.838,3.57,-2.47,7.26
0.839,3.02,-2.75,6.9
0.84,2.24,-2.94,6.55
0.841,2.04,-3.02,6.79
0.842,2.08,-3.02,7.06
0.843,2.31,-3.37,7.57
0.844,2.08,-3.14,8.39
0.845,2.71,-3.18,9.81
0.846,3.77,-3.37,10.63
0.847,2.28,-4.63,10.28
0.848,4.31,-3.37,14.2
0.849,5.84,-0.39,13.81
0.85,2.12,-1.92,8.87
0.851,3.61,-2.79,9.57
0.852,4.79,-1.88,9.65
0.853,2.71,-1.1,7.26
0.854,2.39,-1.73,5.18
0.855,1.77,-2.12,4.59
0.856,1.45,-1.77,4.71
0.857,1.45,-1.41,4.79
0.858,2.12,-1.18,5.1
0.859,1.8,-1.37,5.18
0.86,2.43,-1.26,6.16
0.861,3.84,-1.1,7.06
0.862,4.71,-2.08,8.16
0.863,5.88,-2.24,11.22
0.864,5.84,-0.35,12.94
0.865,6.32,-0.67,11.65
0.866,7.53,-2.82,10.43
0.867,6,-3.49,7.92
0.868,4.59,-2.63,6.39
0.869,3.84,-2.51,5.65
0.87,2.9,-2.51,5.41
0.871,2.2,-2.2,5.41
0.872,2.16,-2.47,5.88
0.873,2.51,-2.47,6.94
0.874,2.55,-2.16,8.28
0.875,2.24,-2.2,8.59
0.876,2.82,-2.98,9.61
0.877,3.33,-3.18,11.34
0.878,2.24,-5.06,12.51
0.879,5.57,-2.12,15.73
0.88,5.41,-0.39,12.98
0.881,2.31,-1.96,8.87
0.882,3.57,-1.57,8.9
0.883,4.08,-1.18,9.02
0.884,2.59,-0.71,6.94
0.885,2.2,-1.18,5.73
0.886,2,-1.57,4.98
0.887,1.96,-1.57,4.55
0.888,2.47,-1.1,5.33
0.889,2.35,-0.9,4.71
0.89,2.2,-1.41,4.71
0.891,2.82,-1.37,5.69
0.892,3.8,-1.73,6.59
0.893,4.94,-3.02,9.34
0.894,6.83,-0.9,12.87
0.895,5.06,-0.2,11.61
0.896,6.16,-2.35,10.55
0.897,6.59,-3.77,9.02
0.898,3.96,-2.9,7.1
0.899,3.26,-2.59,6
0.9,2.79,-2.55,5.84
0.901,1.88,-2.47,5.69
0.902,1.92,-2.75,6.04
0.903,2.31,-2.67,6.9
0.904,2.55,-2.47,8.36
0.905,2.35,-2.16,9.02
0.906,2.59,-2.71,9.65
0.907,3.92,-3.26,10.59
0.908,2.39,-4.82,10.47
0.909,4.98,-2.55,15.65
0.91,5.81,0.2,14
0.911,1.14,-1.88,8.24
0.912,2.63,-2.71,9.18
0.913,4.24,-1.73,10.47
0.914,2.98,-0.98,7.92
0.915,1.92,-1.53,5.3
0.916,1.18,-1.53,4.59
0.917,1.22,-1.26,4.55
0.918,1.96,-1.29,5.26
0.919,2.28,-1.29,4.9
0.92,2.67,-2.16,5.37
0.921,4.08,-2.16,6.51
0.922,4.59,-2.12,7.49
0.923,6.2,-3.02,8.2
0.924,6.98,-3.49,10.9
0.925,3.73,-0.86,9.22
0.926,3.65,-1.73,9.02
0.927,6.24,-4.04,10
0.928,4,-3.57,8.47
0.929,3.73,-3.33,8.04
0.93,2.79,-3.41,7.22
0.931,2,-2.9,6.55
0.932,1.8,-2.9,6.35
0.933,1.73,-2.71,6.51
0.934,1.8,-2.67,6.28
0.935,1.14,-3.06,6.51
0.936,2,-3.1,7.85
0.937,3.18,-3.33,10.08
0.938,3.65,-3.69,10.9
0.939,4.24,-3.88,13.49
0.94,6.55,-1.84,13.89
0.941,4.16,-1.29,10.32
0.942,3.73,-2.04,8.94
0.943,3.8,-1.77,9.49
0.944,4.31,-0.98,9.45
0.945,4.35,-0.9,7.81
0.946,3.06,-1.1,4.98
0.947,2.31,-1.41,4
0.948,2.16,-1.49,4.16
0.949,2.16,-1.06,4.55
0.95,1.88,-1.1,4.63
0.951,2.2,-1.45,5.06
0.952,2.9,-1.22,6.32
0.953,3.77,-1.1,7.41
0.954,4.86,-2.2,8.71
0.955,6.16,-2.55,12.16
0.956,6.94,-0.59,13.45
0.957,4.63,-0.86,11.14
0.958,6.35,-2.9,9.96
0.959,4.47,-2.31,7.92
0.96,3.49,-1.84,6.71
0.961,3.18,-2.28,6.12
0.962,2.51,-2.63,5.61
0.963,2.16,-2.98,5.84
0.964,2.82,-2.82,6.71
0.965,2.35,-2.79,7.18
0.966,2.12,-2.98,7.57
0.967,2.2,-3.1,8.12
0.968,2.51,-3.45,8.94
0.969,2.75,-4.59,10.87
0.97,4.63,-3.41,15.57
0.971,6.75,0.51,15.3
0.972,4.04,-1.18,10.43
0.973,4.2,-2.35,9.53
0.974,5.1,-1.29,10.24
0.975,4.08,-0.43,8.79
0.976,2.9,-0.16,6.08
0.977,2.39,-0.71,4.51
0.978,1.41,-0.82,3.1
0.979,1.61,-1.1,3.3
0.98,1.65,-1.14,3.88
0.981,1.57,-0.98,4.47
0.982,2.86,-1.49,5.69
0.983,3.61,-1.69,6.94
0.984,4.47,-1.73,7.81
0.985,6.24,-3.26,10.79
0.986,6.63,-0.94,12.08
0.987,4.86,-0.55,11.22
0.988,6.35,-2.71,10.98
0.989,6.2,-3.53,9.69
0.99,3.73,-2.79,7.18
0.991,3.33,-2.75,6.59
0.992,2.16,-2.55,5.61
0.993,1.41,-2.31,5.41
0.994,1.45,-2.28,5.88
0.995,1.8,-2.12,6.98
0.996,1.92,-1.84,8.32
0.997,2.08,-2,9.14
0.998,2.55,-2.51,10.12
0.999,3.26,-2.71,10.75
1,2.39,-5.3,12.71
1.001,5.69,-1.65,16.44
1.002,5.26,0.24,12.32
1.003,3.41,-2.12,9.3
1.004,4.79,-1.61,9.73
1.005,3.84,-0.75,9.22
1.006,3.65,-0.43,6.67
1.007,3.61,-1.22,4.47
1.008,2.43,-1.37,4.08
1.009,2.08,-1.18,3.26
1.01,2.28,-1.53,3.84
1.011,2.47,-1.65,4.47
1.012,2.67,-1.37,5.02
1.013,3.77,-1.57,6.63
1.014,3.92,-1.06,6.79
1.015,5.02,-2.82,8
1.016,7.22,-2.31,12.16
1.017,6.16,-0.55,11.53
1.018,6.16,-1.73,11.06
1.019,7.37,-2.86,10.43
1.02,4.39,-2.98,8
1.021,3.3,-2.43,6.32
1.022,2.79,-2.51,5.57
1.023,1.65,-2.55,4.9
1.024,1.49,-2.63,5.14
1.025,1.84,-2.67,6.2
1.026,2.08,-2.63,7.65
1.027,2.35,-2.86,9.06
1.028,2.63,-2.63,10
1.029,3.53,-2.98,10.94
1.03,2.9,-5.06,11.45
1.031,6.16,-2.28,15.77
1.032,6.47,0.24,13.85
1.033,2.82,-1.49,9.41
1.034,4.24,-1.65,9.49
1.035,5.3,-1.8,10.75
1.036,3.84,-0.59,8.79
1.037,2.51,-0.82,5.81
1.038,1.33,-0.98,4.04
1.039,1.41,-0.82,3.53
1.04,1.49,-1.22,3.65
1.041,1.33,-0.82,3.88
1.042,1.92,-1.45,4.31
1.043,3.3,-1.53,5.92
1.044,4.51,-1.18,7.37
1.045,5.3,-2.47,8.39
1.046,7.06,-2.24,12.32
1.047,5.73,0.71,12.28
1.048,5.81,-0.31,10.59
1.049,7.34,-3.3,9.49
1.05,5.41,-3.41,7.57
1.051,4.28,-2.31,6.83
1.052,3.77,-2.2,6.59
1.053,2.39,-2.16,5.53
1.054,2,-2.08,5.53
1.055,2.55,-2.31,6.28
1.056,2.31,-2.28,6.67
1.057,2.39,-2.47,7.57
1.058,2.51,-2.47,8.43
1.059,3.1,-2.59,10
1.06,2.75,-3.92,10.94
1.061,4.98,-2.55,15.22
1.062,7.02,-0.39,15.73
1.063,4.08,-0.43,11.1
1.064,3.45,-1.49,8.87
1.065,4.28,-1.37,9.34
1.066,4.04,-0.51,8.75
1.067,2.94,-0.51,6.32
1.068,2,-1.14,4.59
1.069,1.57,-1.22,4.24
1.07,1.84,-1.37,4.39
1.071,1.84,-1.45,4.9
1.072,2.12,-0.98,5.02
1.073,2.75,-1.53,5.49
1.074,3.41,-1.41,6.16
1.075,3.69,-1.53,6.71
1.076,5.3,-2.94,9.45
1.077,7.34,-1.73,12.87
1.078,6,0.35,11.3
1.079,5.92,-0.86,10.32
1.08,7.3,-2.63,8.87
1.081,5.53,-3.3,7.41
1.082,4.86,-2.04,6.83
1.083,3.37,-2.12,5.41
1.084,2.47,-2.55,4.71
1.085,2.39,-2.51,5.14
1.086,2.59,-2.28,6.12
1.087,2.63,-2.35,7.34
1.088,2.39,-2.28,7.77
1.089,2.47,-2.47,8.67
1.09,3.18,-2.75,10.08
1.091,3.33,-3.77,10.55
1.092,2.39,-5.49,12.79
1.093,7.61,-1.26,16.91
1.094,5.1,0.08,11.96
1.095,2.71,-1.49,8.32
1.096,3.88,-1.53,8.87
1.097,4.82,-0.94,9.53
1.098,3.26,-0.67,6.9
1.099,2.94,-1.1,5.33
1.1,1.88,-1.1,4.39
1.101,2.2,-0.78,4
1.102,2.43,-1.02,4.55
1.103,2.35,-0.47,4.71
1.104,2.55,-1.22,4.9
1.105,3.22,-1.1,6
1.106,4.28,-0.94,7.22
1.107,5.26,-1.88,7.69
1.108,6.51,-2.55,10.43
1.109,5.45,0.12,12.55
1.11,5.41,-0.86,11.65
1.111,6.04,-2.82,9.45
1.112,5.45,-3.88,7.81
1.113,4.9,-4,6.9
1.114,4.12,-3.37,5.92
1.115,3.02,-2.9,5.26
1.116,2.79,-2.82,5.45
1.117,2.59,-2.86,6.04
1.118,2.55,-2.71,6.94
1.119,2.35,-2.55,7.88
1.12,1.96,-2.79,8.55
1.121,2.12,-2.9,9.41
1.122,3.06,-3.49,10.47
1.123,2.86,-6.04,12.28
1.124,5.26,-1.26,15.65
1.125,4.9,0.24,12.71
1.126,2.94,-1.73,8.94
1.127,3.69,-1.84,8.87
1.128,4.24,-1.37,9.41
1.129,3.41,-0.98,7.45
1.13,2.55,-1.41,5.06
1.131,1.73,-1.49,4.28
1.132,1.22,-1.45,4
1.133,2.16,-2.04,4.67
1.134,2.79,-2.2,5.65
1.135,2.35,-1.45,5.81
1.136,3.26,-2.04,6.24
1.137,4.04,-2.12,7.18
1.138,4.86,-1.96,7.57
1.139,6.55,-4.47,10.9
1.14,8.59,-1.53,14.55
1.141,6.08,1.41,12.2
1.142,5.81,-1.57,9.02
1.143,5.88,-3.22,6.94
1.144,3.92,-2.79,5.61
1.145,2.9,-1.77,5.33
1.146,2.55,-2,5.61
1.147,1.92,-1.84,5.53
1.148,1.96,-2.2,6
1.149,2.59,-2.43,7.1
1.15,2.63,-1.92,8.24
1.151,2.2,-2.04,8.28
1.152,2.43,-3.41,8.9
1.153,3.3,-3.73,10.4
1.154,2.59,-4.86,10.32
1.155,3.96,-4.24,13.81
1.156,6.35,-1.57,13.38
1.157,3.88,-1.73,10.04
1.158,3.57,-1.92,8.51
1.159,3.45,-1.41,8.12
1.16,3.41,-0.9,5.92
1.161,2.75,-1.53,4.82
1.162,2.12,-1.45,4.04
1.163,1.96,-1.41,4.63
1.164,2.55,-1.61,5.06
1.165,2.31,-1.41,5.06
1.166,3.57,-1.53,5.96
1.167,4.08,-1.92,6.59
1.168,4.47,-1.88,7.41
1.169,6.28,-3.1,11.06
1.17,7.69,-1.49,14.12
1.171,6.28,0.55,12.67
1.172,5.88,-1.41,9.65
1.173,6.04,-2.55,7.69
1.174,3.96,-2.55,5.84
1.175,3.73,-1.96,5.77
1.176,2.43,-2.39,5.45
1.177,1.96,-2.04,5.37
1.178,1.73,-2.47,6.2
1.179,2.35,-2.47,7.65
1.18,2.24,-2.28,8.59
1.181,1.57,-2.16,8.87
1.182,2.63,-2.75,8.83
1.183,4.04,-3.53,9.81
1.184,3.1,-4.67,9.81
1.185,4.55,-4.94,14.59
1.186,7.26,-0.9,16.79
1.187,4.35,0.35,11.18
1.188,1.77,-2.35,7.22
1.189,3.18,-2.08,7.88
1.19,3.92,-1.41,9.14
1.191,2.86,-0.98,7.45
1.192,2.2,-1.45,5.14
1.193,1.77,-1.77,4.2
1.194,1.69,-1.49,4.08
1.195,1.8,-1.61,4.55
1.196,1.92,-1.49,4.9
1.197,2.47,-1.92,5.96
1.198,4.12,-1.53,7.37
1.199,4.98,-1.77,8.55
1.2,6.55,-2.55,9.85
1.201,8.28,-2.31,12.4
1.202,5.37,0,10.51
1.203,4.35,-0.78,8.98
1.204,5.06,-2.94,7.34
1.205,4.08,-3.77,6.35
1.206,3.26,-2.51,6.79
1.207,2.9,-2.08,6.83
1.208,2.35,-2.28,6.16
1.209,2.16,-2.39,6.24
1.21,2.47,-2.59,7.18
1.211,2.51,-2.35,8
1.212,2.43,-2.43,8.59
1.213,2.47,-2.94,8.79
1.214,3.3,-3.61,10.36
1.215,2.79,-4.59,11.73
1.216,6.08,-1.57,16.55
1.217,5.81,-0.47,13.1
1.218,3.45,-1.77,9.38
1.219,4.24,-1.41,9.18
1.22,5.3,-1.26,9.14
1.221,2.86,-0.43,6.24
1.222,2.28,-0.94,4.47
1.223,2.04,-1.26,3.77
1.224,2,-1.18,3.53
1.225,2.51,-1.29,4.12
1.226,2.08,-1.37,4.55
1.227,2.2,-0.78,5.37
1.228,3.57,-1.53,7.3
1.229,3.92,-1.33,7.92
1.23,5.02,-2.55,9.06
1.231,7.37,-2.2,12.79
1.232,5.84,-0.24,12.4
1.233,6.24,-0.39,10.63
1.234,7.73,-2.75,8.47
1.235,6.59,-3.49,6.9
1.236,5.33,-2.51,6.04
1.237,3.84,-1.88,5.3
1.238,2.86,-1.88,4.86
1.239,2.24,-1.88,4.75
1.24,2.12,-2,5.33
1.241,2.55,-2.28,6.75
1.242,2.43,-2.12,7.81
1.243,1.61,-2.28,7.96
1.244,2.43,-3.49,9.45
1.245,3.14,-3.57,10.47
1.246,1.8,-6.12,11.85
1.247,6.12,-1.69,16.87
1.248,5.41,-0.71,12.91
1.249,3.8,-1.84,11.02
1.25,5.49,-1.29,11.26
1.251,5.49,-0.78,9.65
1.252,3.3,-0.43,6.24
1.253,2.79,-0.82,4.55
1.254,2.24,-1.14,3.73
1.255,2.31,-1.18,3.8
1.256,2.2,-0.75,4.16
1.257,1.8,-0.51,4.16
1.258,2.47,-0.9,4.94
1.259,2.86,-1.1,5.69
1.26,3.8,-0.98,6.67
1.261,5.65,-3.41,9.3
1.262,7.45,-1.61,13.22
1.263,5.3,0.24,12.55
1.264,5.92,-2.28,10.87
1.265,6.35,-3.33,8.87
1.266,3.73,-3.22,7.26
1.267,3.41,-2.79,6.71
1.268,2.47,-2.98,6.16
1.269,1.57,-2.86,5.77
1.27,1.53,-2.71,5.77
1.271,2.24,-2.82,6.47
1.272,2.82,-2.75,7.18
1.273,2.79,-2.63,7.73
1.274,2.71,-3.1,8.32
1.275,3.69,-3.33,9.96
1.276,3.02,-4.86,11.49
1.277,6.04,-2.43,16.44
1.278,5.61,0.04,14.04
1.279,3.65,-1.1,9.49
1.28,2.59,-2.12,8.71
1.281,3.8,-1.18,9.57
1.282,3.14,-0.75,7.69
1.283,2.24,-0.94,5.84
1.284,1.92,-1.26,5.49
1.285,1.53,-1.41,5.22
1.286,1.57,-1.37,5.06
1.287,1.96,-1.45,4.67
1.288,2,-1.65,4.51
1.289,2.16,-1.65,4.75
1.29,3.92,-1.77,6.32
1.291,5.02,-2.63,8.32
1.292,5.69,-2.59,10.59
1.293,6.12,-0.67,12.2
1.294,5.18,-0.04,11.06
1.295,6.39,-2.9,9.06
1.296,6.32,-4.2,7.92
1.297,4.55,-3.49,6.63
1.298,3.18,-2.24,6.39
1.299,2.47,-2.12,6.28
1.3,1.69,-2.35,6.08
1.301,1.41,-2.59,5.92
1.302,1.73,-2.82,6.75
1.303,2.24,-2.63,7.85
1.304,1.77,-2.75,8.36
1.305,2.2,-3.14,9.06
1.306,2.94,-3.8,10.36
1.307,3.92,-4.47,13.85
1.308,6.12,-0.78,15.18
1.309,4.82,-0.63,11.92
1.31,2.94,-2.55,8.98
1.311,4.04,-2.12,10.08
1.312,4.31,-1.22,9.81
1.313,3.65,-0.86,7.65
1.314,2.94,-0.98,5.3
1.315,2.31,-1.37,3.84
1.316,1.92,-1.33,3.53
1.317,2.16,-1.41,3.65
1.318,2.39,-1.57,4.35
1.319,2.9,-2.08,5.37
1.32,4.12,-1.96,6.2
1.321,4.86,-2.31,6.98
1.322,6,-2.98,7.69
51.99641,7.3,-3.02,10.79
1.325,6,-0.2,10.87
1.326,5.06,-1.53,9.49
1.327,6.04,-3.06,8.39
1.328,5.73,-3.49,7.85
1.329,4.28,-2.31,7.65
1.33,3.45,-2.35,7.06
1.331,2.71,-2.55,5.96
1.332,2.28,-2.67,5.53
1.333,2.28,-2.63,5.73
1.334,2.71,-2.75,6.59
1.335,2.59,-2.82,7.26
1.336,2.47,-3.53,8.47
1.337,2.82,-3.65,9.69
1.338,3.33,-4.31,10.9
1.339,2.98,-5.02,12.47
1.34,5.73,-2.08,14.95
1.341,4.86,-1.06,11.22
1.342,2.51,-3.02,8.55
1.343,3.73,-2.12,9.53
1.344,4.24,-1.92,8.94
1.345,3.49,-1.65,7.22
1.346,2.67,-1.14,5.92
1.347,2.24,-1.29,5.06
1.348,1.8,-1.65,4.16
1.349,2.47,-1.8,4.79
1.35,2.43,-1.53,4.79
1.351,2.71,-2.04,5.37
1.352,4.2,-1.61,6.79
1.353,4.51,-1.61,7.18
1.354,5.69,-2.59,7.77
1.355,7.1,-2.71,11.45
1.356,5.45,0.51,11.69
1.357,5.14,-0.35,10.75
1.358,6.63,-2,8.94
1.359,5.22,-2.75,6.94
1.36,3.88,-2.24,6.12
1.361,2.79,-2.28,5.88
1.362,2.04,-2.39,5.81
1.363,1.8,-2.67,5.96
1.364,2.16,-2.9,6.75
1.365,2.75,-2.94,7.77
1.366,3.02,-2.71,8.39
1.367,2.82,-2.86,8.79
1.368,3.57,-3.26,10.59
1.369,3.41,-4.71,10.83
1.37,2.75,-5.57,12.08
1.371,6.47,-0.94,15.26
1.372,3.84,-0.71,9.96
1.373,2.63,-2.71,8.28
1.374,4.75,-1.92,9.61
1.375,4.35,-1.02,8.75
1.376,2.39,-1.18,5.57
1.377,2.04,-1.22,4.55
1.378,1.49,-1.1,3.69
1.379,1.73,-1.14,4
1.38,2.12,-1.33,4.39
1.381,2.24,-1.49,4.67
1.382,2.94,-1.61,5.88
1.383,4.2,-1.33,7.1
1.384,4.86,-2.59,7.61
1.385,6.98,-2.71,11.18
1.386,6.39,-0.63,11.45
1.387,5.57,-1.41,10.63
1.388,7.34,-2.31,10.04
1.389,6.83,-3.49,8.28
1.39,4.9,-2.67,6.55
1.391,3.73,-2.31,5.81
1.392,2.59,-2.2,5.41
1.393,1.8,-2.2,5.49
1.394,1.61,-2.04,5.77
1.395,2.12,-2.47,6.83
1.396,2,-2.51,7.65
1.397,2.08,-2.67,8.2
1.398,2.75,-3.69,9.49
1.399,3.53,-3.49,10.55
1.4,2.24,-5.3,10.75
1.401,4.86,-3.06,15.49
1.402,6.35,-0.59,13.65
1.403,3.1,-2.04,10.43
1.404,4.86,-1.22,10.79
1.405,5.22,-0.94,9.92
1.406,3.06,-0.27,6.55
1.407,2.28,-0.59,4.82
1.408,2.12,-0.82,4.47
1.409,1.65,-1.06,3.77
1.41,2.04,-1.02,3.88
1.411,2.39,-1.18,4.51
1.412,1.37,-0.9,4.43
1.413,1.77,-1.29,5.06
1.414,2.94,-1.96,6.16
1.415,4,-3.14,7.41
1.416,7.45,-3.41,12.51
1.417,6.67,-0.35,13.89
1.418,6.67,-0.08,12.55
1.419,7.65,-2.47,10.08
1.42,5.65,-3.3,7.02
1.421,4.71,-2.9,5.84
1.422,3.88,-2.79,5.3
1.423,2.71,-2.55,5.18
1.424,2.24,-2.47,5.22
1.425,2.35,-2.51,5.81
1.426,2.12,-2.71,7.06
1.427,2.04,-2.55,7.96
1.428,2,-2.82,8.36
1.429,2.39,-3.77,9.53
1.43,2.47,-4.55,10.47
1.431,3.61,-5.33,15.3
1.432,6.63,-0.75,15.89
1.433,4.2,-2.16,10.9
1.434,4.16,-2.28,10.24
1.435,4.82,-1.57,10.16
1.436,3.45,-0.82,8.36
1.437,2.9,-0.94,5.49
1.438,2.43,-1.29,4.2
1.439,2.24,-0.75,3.37
1.44,2.47,-1.49,3.88
1.441,1.84,-1.18,3.84
1.442,1.8,-1.61,3.88
1.443,2.51,-2.43,4.75
1.444,2.82,-2.16,5.81
1.445,3.69,-1.92,6.98
1.446,5.73,-3.41,11.49
1.447,6.2,-1.88,13.77
1.448,5.96,-1.84,12.24
1.449,7.02,-3.57,9.34
1.45,5.33,-3.77,7.3
1.451,3.65,-3.22,6.32
1.452,2.79,-2.82,5.96
1.453,1.73,-2.67,5.53
1.454,1.37,-2.94,5.41
1.455,1.73,-3.22,6.24
1.456,1.84,-3.26,6.94
1.457,2.24,-2.94,8.2
1.458,2.16,-3.65,8.71
1.459,2.59,-4,9.73
1.46,3.22,-4.24,10.51
1.461,3.1,-5.96,13.53
1.462,7.41,-1.69,15.69
1.463,5.1,-1.22,12
1.464,2.82,-2.24,9.26
1.465,4.98,-2.16,10.24
1.466,4,-1.1,9.14
1.467,2.43,-0.55,6.43
1.468,2,-1.26,4.35
1.469,1.73,-0.67,3.69
1.47,2.16,-1.14,3.57
1.471,2.2,-1.53,4.55
1.472,1.57,-0.94,4.67
1.473,1.96,-1.88,5.02
1.474,2.75,-1.65,6.12
1.475,3.65,-1.88,7.61
1.476,4.39,-3.1,8.36
1.477,7.1,-3.26,13.14
1.478,6.12,-0.67,12.87
1.479,5.18,-2.86,10.36
1.48,6.39,-3.77,8.83
1.481,4.31,-3.88,7.02
1.482,3.61,-2.94,6.55
1.483,3.02,-2.86,5.84
1.484,1.77,-2.67,5.41
1.485,1.49,-2.75,5.49
1.486,1.73,-2.75,6.32
1.487,2.08,-2.79,7.34
1.488,1.96,-2.75,8.2
1.489,2.16,-2.98,8.98
1.49,2.98,-3.61,10
1.491,2.51,-4.82,10.24
1.492,5.22,-3.41,15.34
1.493,5.57,-0.47,13.38
1.494,2.12,-2.55,9.77
1.495,3.65,-2.2,10.47
1.496,4.43,-1.26,11.26
1.497,2.9,-0.82,7.57
1.498,2.79,-1.22,5.26
1.499,2.04,-1.57,3.92
1.5,1.65,-1.49,3.49
1.501,2,-1.92,3.69
1.502,1.8,-2.16,4.28
1.503,2.24,-1.65,4.86
1.504,3.22,-2.08,5.61
1.505,3.88,-1.69,6.71
1.506,5.06,-2,7.57
1.507,5.77,-3.22,9.18
1.508,6.71,-2.28,11.73
1.509,5.41,-0.31,10.98
1.51,7.49,-2.12,11.06
1.511,7.53,-2.79,9.96
1.512,5.22,-2.47,7.61
1.513,3.02,-2.08,5.57
1.514,2.43,-2.43,5.02
1.515,1.69,-2.39,5.18
1.516,1.61,-2.35,5.61
1.517,1.65,-2.75,6.08
1.518,2.47,-3.3,7.49
1.519,2.55,-3.26,8.71
1.52,2.86,-3.65,10.36
1.521,3.96,-3.92,10.79
1.522,2.98,-5.45,12.12
1.523,6.86,-1.69,15.49
1.524,3.96,-1.88,10.67
1.525,2.71,-2.82,9.73
1.526,5.02,-1.88,11.14
1.527,4.71,-1.49,9.53
1.528,3.02,-1.22,5.84
1.529,2.47,-1.18,4.28
1.53,1.57,-1.37,3.14
1.531,1.57,-1.69,3.14
1.532,2.28,-2.04,3.77
1.533,2.55,-2.2,5.06
1.534,2.75,-1.65,5.61
1.535,3.22,-1.96,5.61
1.536,3.53,-1.96,6.08
1.537,4.71,-3.22,8.32
1.538,6.43,-2.47,11.92
1.539,5.41,0.2,13.26
1.54,7.77,0.59,12.63
1.541,9.18,-3.14,9.49
1.542,6.43,-3.8,6.98
1.543,4.43,-2.94,5.41
1.544,3.18,-2.28,5.18
1.545,2.43,-2.47,5.3
1.546,1.92,-2.43,5.45
1.547,1.53,-2.35,6.08
1.548,1.92,-2.71,6.83
1.549,1.77,-3.06,7.73
1.55,1.96,-2.94,8.79
1.551,2.51,-3.26,9.73
1.552,2.75,-5.02,10.43
1.553,4.35,-4.51,15.53
1.554,7.22,-1.26,16
1.555,3.61,-1.92,10.47
1.556,3.96,-2.16,9.57
1.557,4.94,-1.26,10.55
1.558,3.8,-0.35,7.73
1.559,2.94,-1.18,5.49
1.56,1.84,-1.65,4.04
1.561,1.14,-1.06,3.84
1.562,1.49,-1.29,4.16
1.563,1.96,-1.77,4.75
1.564,2.08,-1.61,5.06
1.565,2.59,-1.69,5.61
1.566,4.04,-1.49,6.83
1.567,4.31,-2.24,6.79
1.568,5.41,-3.26,8.67
1.569,7.65,-2.04,12.59
1.57,5.88,-0.2,12.12
1.571,7.45,-2.75,10.28
1.572,6.98,-4.31,8.39
1.573,5.06,-3.61,7.34
1.574,4.12,-2.24,6.71
1.575,2.79,-2.31,5.73
1.576,1.92,-2.67,4.71
1.577,1.8,-2.86,5.18
1.578,2.24,-2.75,5.92
1.579,2,-3.02,6.98
1.58,2.12,-3.41,8.32
1.581,2.94,-3.18,9.69
1.582,3.92,-3.22,11.18
1.583,3.22,-5.49,12.16
1.584,6.83,-2.59,15.18
1.585,5.88,-0.94,12.51
1.586,4.28,-1.96,10.12
1.587,5.26,-1.73,10.67
1.588,4.94,-0.55,9.73
1.589,3.77,-0.27,7.34
1.59,2.59,-0.94,5.14
1.591,1.77,-0.55,3.92
1.592,2.16,-1.06,3.73
1.593,2.08,-1.18,4
1.594,1.84,-1.18,4.2
1.595,2.43,-1.88,4.67
1.596,3.3,-1.8,5.61
1.597,4.63,-1.92,7.02
1.598,5.41,-2.98,7.81
1.599,6.59,-3.1,11.06
1.6,6.79,-0.04,12.43
1.601,5.26,0.47,11.57
1.602,5.73,-1.22,9.02
1.603,5.96,-4.16,7.96
1.604,4.39,-3.53,6.98
1.605,2.98,-2.08,6.39
1.606,2.2,-2.43,5.92
1.607,2,-2.24,5.57
1.608,1.96,-1.96,5.92
1.609,1.96,-1.88,6.51
1.61,2.31,-2.08,7.65
1.611,2.31,-1.8,8.55
1.612,2.59,-2.04,9.34
1.613,3.37,-2.71,10.2
1.614,4.43,-3.53,12.94
1.615,6.71,-1.92,15.02
1.616,4.47,-0.51,11.85
1.617,3.49,-1.92,10.63
1.618,5.22,-1.61,11.69
1.619,4.04,-0.71,9.26
1.62,3.02,-0.86,6.39
1.621,2.2,-1.26,4.63
1.622,1.22,-1.22,3.65
1.623,1.73,-1.45,3.8
1.624,1.57,-1.37,4.24
1.625,1.61,-1.37,4.75
1.626,2.08,-1.41,5.22
1.627,3.73,-1.88,6.94
1.628,4.47,-1.53,7.77
1.629,6.12,-2.47,10.32
1.63,7.53,-1.26,12.47
1.631,5.61,0.08,11.06
1.632,6.79,-1.84,9.38
1.633,7.1,-3.53,8.2
1.634,4.63,-2.59,6.86
1.635,3.57,-2.12,6.16
1.636,2.86,-2.2,5.77
1.637,2.2,-2.24,5.49
1.638,1.73,-2.04,5.81
1.639,1.92,-2.16,6.2
1.64,2.24,-2.47,7.26
1.641,2.43,-2.39,8.43
1.642,2.51,-2.47,9.73
1.643,3.96,-2.86,10.83
1.644,2.63,-4.9,9.92
1.645,4.24,-4.75,14.87
0.001,7.45,-0.04,15.89
0.002,3.73,-0.71,10.94
0.003,4.04,-1.65,9.89
0.004,5.53,-1.14,10.71
0.005,3.41,-0.2,8.08
0.006,2.39,-1.14,5.14
0.007,1.77,-1.65,4.16
0.008,1.49,-1.18,4.2
0.009,1.92,-1.1,4.16
0.01,2.39,-1.18,4.28
0.011,2.55,-1.37,4.79
0.012,2.79,-1.22,5.49
0.013,3.92,-1.33,6.79
0.014,5.33,-2.2,8.79
0.015,6.83,-1.57,11.77
0.016,5.65,0.24,12.08
0.017,6.47,-1.33,10.71
0.018,7.92,-3.33,9.77
0.019,6.12,-3.37,8.2
0.02,4.63,-2.24,6.51
0.021,3.57,-2.31,5.18
0.022,2.12,-2.31,5.22
0.023,1.65,-2.04,5.1
0.024,1.92,-2.51,6.55
0.025,2.51,-2.35,7.61
0.026,2.86,-2.31,8.39
0.027,2.82,-2.55,9.06
0.028,3.3,-2.67,9.85
0.029,3.41,-3.45,10.32
0.03,4.63,-4.24,14
0.031,7.06,-1.29,15.81
0.032,4.75,-0.59,11.3
0.033,3.22,-1.84,8.43
0.034,4.67,-1.84,9.49
0.035,4.43,-0.94,9.3
0.036,2.71,-0.82,6.98
0.037,1.96,-1.14,4.79
0.038,1.84,-1.1,4.28
0.039,1.65,-1.33,4.16
0.04,1.73,-1.1,4.35
0.041,2.08,-1.37,4.67
0.042,2.12,-1.33,4.86
0.043,3.41,-1.49,6.24
0.044,3.92,-1.29,7.14
0.045,5.69,-2.16,8.94
0.046,6.86,-1.53,12.12
0.047,5.41,0.43,12.16
0.048,6.43,-0.04,11.18
0.049,8.63,-2.75,9.06
0.05,6.12,-3.45,7.88
0.051,4.94,-1.92,7.22
0.052,3.96,-1.84,6.24
0.053,3.1,-2.55,5.18
0.054,2.63,-2.55,5.14
0.055,2.59,-2.16,5.73
0.056,2.47,-2.2,6.12
0.057,2.39,-2.24,6.98
0.058,2.16,-2.55,7.34
0.059,2.63,-3.41,8.94
0.06,3.14,-3.14,10.63
0.061,2.59,-5.22,12.67
0.062,7.77,-1.53,16.24
0.063,4.9,-0.86,12.08
0.064,2.67,-1.92,9.89
0.065,4.39,-1.57,10.94
0.066,4.9,-0.94,10.67
0.067,3.77,-0.82,7.41
0.068,2.43,-1.06,4.75
0.069,1.53,-0.9,3.84
0.07,1.69,-0.75,3.61
0.071,2.08,-1.14,4.55
0.072,2.16,-0.78,4.67
0.073,2.24,-1.22,4.71
0.074,2.71,-1.22,5.53
0.075,3.41,-1.29,6.08
0.076,4.35,-2.47,6.16
0.077,6.08,-2.67,10.2
0.078,7.53,-1.69,12.94
0.079,5.49,0.04,11.57
0.08,8.51,-2.39,10.9
0.081,6.47,-3.73,9.02
0.082,5.1,-2.75,7.69
0.083,3.8,-2.63,6.08
0.084,2.08,-2.59,4.94
0.085,1.77,-2.28,5.33
0.086,2,-1.96,6.2
0.087,2.04,-2.51,6.9
0.088,2.2,-2.51,7.73
0.089,2.31,-2.12,8.98
0.09,2.55,-2.63,10.16
0.091,2.75,-3.18,10.51
0.092,2.51,-5.02,12.32
0.093,6.59,-1.88,16
0.094,5.33,-0.67,13.06
0.095,3.92,-1.33,10.51
0.096,4.51,-1.45,10.32
0.097,4.08,-0.24,8.51
0.098,3.06,-0.31,5.88
0.099,1.41,-0.75,4.35
0.1,0.82,-0.75,3.88
0.101,2.39,-1.26,4.71
0.102,2.16,-0.98,5.1
0.103,1.53,-0.27,4.51
0.104,3.18,-1.53,5.22
0.105,3.8,-1.06,7.18
0.106,4.2,-0.31,8.39
0.107,6.63,-1.61,10.63
0.108,5.96,-1.53,11.06
0.109,4.71,-0.98,9.49
0.11,6.79,-2.75,9.22
0.111,5.88,-3.49,8.24
0.112,4.35,-2.59,7.77
0.113,3.45,-2.43,7.1
0.114,2.35,-2.63,6.12
0.115,1.41,-2.39,5.69
0.116,1.18,-2.24,5.84
0.117,1.41,-2.47,6.75
0.118,1.57,-2.31,7.65
0.119,1.84,-2.28,8.51
0.12,2.51,-2.59,9.77
0.121,3.45,-2.51,10.79
0.122,2.47,-5.1,11.92
0.123,5.22,-2.08,16.04
0.124,6.04,0.47,14.4
0.125,2.9,-1.77,10.16
0.126,4.98,-1.53,10.51
0.127,4.63,-0.31,9.3
0.128,3.57,-0.47,6.47
0.129,2.2,-0.51,4.75
0.13,0.9,-0.67,3.69
0.131,1.61,-1.26,3.69
0.132,2.51,-1.45,4.35
0.133,2.31,-1.22,4.63
0.134,1.88,-0.55,4.98
0.135,2.82,-0.86,5.84
0.136,2.75,-1.22,6.28
0.137,4.98,-2.59,9.34
0.138,6.9,-0.59,13.34
0.139,6.94,1.06,12.71
0.14,9.18,-1.61,11.18
0.141,7.81,-4.04,9.06
0.142,4.55,-2.24,7.49
0.143,3.45,-2,7.1
0.144,1.84,-2.51,5.61
0.145,1.22,-2.59,5.02
0.146,1.14,-2.71,5.14
0.147,1.53,-2.82,6.12
0.148,1.65,-2.51,7.26
0.149,2.31,-2.39,8.04
0.15,2.55,-2.79,8.79
0.151,3.41,-2.94,10.08
0.152,3.45,-4.04,10.12
0.153,3.26,-5.41,12.43
0.154,7.45,-0.9,15.65
0.155,5.02,-0.31,11.53
0.156,3.88,-1.77,9.69
0.157,4.98,-1.96,10.28
0.158,4.55,-0.55,8.9
0.159,3.33,-0.86,5.69
0.16,2.35,-1.22,4.63
0.161,1.41,-1.02,4.24
0.162,2.28,-1.37,4.59
0.163,2.47,-2,4.67
0.164,2.24,-1.73,4.79
0.165,2.59,-1.49,5.49
0.166,3.45,-1.45,6.63
0.167,3.45,-1.1,7.06
0.168,5.26,-2,8.94
0.169,6.9,-0.75,12.71
0.17,5.57,2.31,11.14
0.171,7.22,-0.75,8.9
0.172,7.57,-3.41,9.3
0.173,5.18,-1.92,8.36
0.174,4.47,-2.28,7.3
0.175,3.37,-3.37,5.45
0.176,2.82,-3.37,5.14
0.177,2.51,-2.35,5.65
0.178,2.16,-2.43,6.39
0.179,2.43,-2.16,7.22
0.18,2.71,-1.69,8.63
0.181,2.63,-2.2,9.1
0.182,3.22,-2.63,10.08
0.183,3.26,-4.39,11.3
0.184,5.84,-1.73,16.71
0.185,6.9,0.08,14.24
0.186,3.77,-1.14,9.85
0.187,3.26,-1.45,8.12
0.188,5.53,-1.26,9.06
0.189,3.06,-0.47,6.71
0.19,1.73,-0.59,4.79
0.191,2,-0.55,3.96
0.192,1.92,-0.47,3.88
0.193,1.69,-0.31,3.92
0.194,1.96,-1.22,4.28
0.195,2.55,-1.49,5.45
0.196,3.45,-0.9,6.51
0.197,4.47,-1.22,8
0.198,5.61,-2.12,9.06
0.199,6.24,-2.86,10.24
0.2,7.49,-0.9,12.2
0.201,6.47,0.51,10.75
0.202,8.12,-1.18,10
0.203,7.22,-2.43,8.04
0.204,5.02,-2.31,5.81
0.205,3.8,-1.73,4.94
0.206,2.86,-1.61,4.63
0.207,2.04,-1.69,4.82
0.208,1.65,-2.12,5.18
0.209,1.96,-2.24,6.51
0.21,2.24,-1.84,8.04
0.211,1.8,-2.24,9.14
0.212,2.28,-2.82,10.12
0.213,3.41,-2.67,11.1
0.214,3.18,-4.82,13.57
0.215,6.98,-1.49,16.2
0.216,4.39,-1.1,12.47
0.217,4.04,-1.18,11.22
0.218,6.16,-1.26,11.26
0.219,3.57,-0.2,8.47
0.22,2.71,-0.75,5.73
0.221,2,-0.94,4.39
0.222,1.18,-0.94,3.49
0.223,2,-0.78,3.92
0.224,1.92,-1.1,3.88
0.225,1.84,-1.29,4.04
0.226,2.63,-1.33,4.79
0.227,2.75,-1.1,5.77
0.228,3.61,-1.29,7.41
0.229,6.12,-2.35,10.08
0.23,7.77,-2.59,12.79
0.231,6,-0.59,12.32
0.232,6.63,-2.04,11.38
0.233,7.81,-3.61,9.49
0.234,5.53,-3.26,7.73
0.235,3.96,-2.12,6.12
0.236,2.75,-2.04,5.26
0.237,1.84,-1.92,4.75
0.238,1.65,-1.88,5.33
0.239,1.65,-1.96,6.08
0.24,1.96,-1.88,7.1
0.241,1.92,-2.35,7.73
0.242,2.47,-2.12,9.34
0.243,3.57,-2.98,10.75
0.244,3.37,-4.39,11.06
0.245,6.12,-2.63,15.1
0.246,7.53,-0.55,14.32
0.247,3.77,-1.18,9.61
0.248,2.47,-1.96,8.83
0.249,4.39,-1.37,10.16
0.25,4.98,-0.98,8.98
0.251,2.9,-1.22,5.53
0.252,2,-1.33,4.31
0.253,1.53,-1.33,4.08
0.254,1.84,-1.18,4.12
0.255,2.39,-1.1,4.63
0.256,2.16,-0.94,4.75
0.257,2.55,-0.98,5.33
0.258,3.96,-1.41,6.43
0.259,4.71,-1.49,7.92
0.26,5.37,-1.26,9.57
0.261,5.84,-2.08,10.51
0.262,5.73,-0.16,11.38
0.263,9.06,-0.12,11.85
0.264,8.16,-1.69,10.32
0.265,7.1,-1.49,8.12
0.266,6.32,-2.39,5.88
0.267,4.08,-2.2,4.67
0.268,3.33,-1.65,4.39
0.269,2.86,-1.73,4.35
0.27,2.16,-2.24,4.71
0.271,1.92,-2.31,5.49
0.272,1.96,-2.31,6.67
0.273,2.51,-2.82,8.51
0.274,2.82,-3.3,10.28
0.275,2.79,-4.63,11.22
0.276,3.96,-4.16,15.26
0.277,6.04,-0.75,14.83
0.278,3.69,-2.51,11.73
0.279,4.55,-2.39,11.38
0.28,5.57,-1.14,11.02
0.281,2.67,-0.47,6.47
0.282,1.84,-1.26,4
0.283,1.49,-1.41,3.57
0.284,1.33,-1.33,3.73
0.285,2.04,-1.45,4.04
0.286,2.08,-1.77,4.47
0.287,2,-1.26,4.82
0.288,3.69,-1.26,6.79
0.289,4.24,-1.1,7.88
0.29,5.18,-0.78,8.55
0.291,5.69,-2.43,10.36
0.292,5.22,-0.86,11.65
0.293,5.41,-0.67,10.94
0.294,6.67,-3.22,9.14
0.295,6.43,-4.12,8.08
0.296,4.59,-2.71,7.06
0.297,3.45,-2.35,6.39
0.298,2.59,-2.31,5.73
0.299,2.16,-1.92,5.53
0.3,2.24,-1.92,6.59
0.301,2.35,-2.39,7.3
0.302,2.43,-2.51,7.77
0.303,3.18,-3.41,9.45
0.304,3.92,-3.61,10.43
0.305,2.9,-5.77,11.26
0.306,6.71,-2.59,16.55
0.307,5.18,-0.59,12.08
0.308,2.31,-2.75,8.79
0.309,4.04,-2.31,9.69
0.31,4.94,-1.22,9.73
0.311,2.98,-1.26,6.12
0.312,2.39,-1.45,4.31
0.313,1.37,-1.49,3.65
0.314,1.61,-1.29,3.69
0.315,2.12,-1.57,4.28
0.316,2.2,-1.77,4.71
0.317,2.55,-1.49,5.61
0.318,4.35,-1.33,7.69
0.319,5.18,-1.69,8.67
0.32,6.12,-2.51,10.75
0.321,7.3,-2.31,12.98
0.322,6.16,-0.27,11.57
0.323,5.45,0.04,9.26
0.324,6.86,-2.9,7.06
0.325,5.45,-3.65,5.96
0.326,3.88,-1.69,5.65
0.327,2.9,-1.8,5.88
0.328,1.61,-1.88,5.53
0.329,1.61,-2.67,5.65
0.33,2.2,-2.79,6.63
0.331,2.63,-3.1,7.96
0.332,2.71,-3.06,8.83
0.333,2.79,-3.26,9.69
0.334,3.65,-4.04,10.51
0.335,4.39,-5.41,13.22
0.336,6.71,-1.84,15.38
0.337,4.43,-0.98,11.18
0.338,3.77,-2.39,10.04
0.339,5.02,-2.2,10.75
0.34,3.96,-0.67,8.75
0.341,2.82,-0.9,5.18
0.342,2.04,-1.33,4
0.343,1.57,-0.98,3.8
0.344,1.61,-0.94,4.24
0.345,2.16,-1.02,4.98
0.346,2.35,-1.29,4.9
0.347,2.67,-1.45,5.18
0.348,4.24,-1.57,6.51
0.349,4.35,-1.69,6.79
0.35,6.32,-2.94,9.57
0.351,8.51,-2.47,12.83
0.352,5.77,-0.94,11.18
0.353,6.55,-1.8,11.02
0.354,6.75,-2.63,8.75
0.355,3.77,-3.02,6.28
0.356,3.06,-2.82,5.57
0.357,2.16,-2.79,4.79
0.358,1.45,-2.63,5.06
0.359,1.29,-2.79,5.41
0.36,1.65,-3.06,6.47
0.361,1.92,-2.71,8.12
0.362,2.04,-2.71,9.14
0.363,2.9,-3.06,10.08
0.364,3.61,-3.65,9.85
0.365,3.33,-5.77,12.75
0.366,6.63,-2.35,15.42
0.367,4.94,-1.14,11.81
0.368,3.22,-2.86,10.43
0.369,5.61,-2.08,12.16
0.37,4.39,-1.29,8.98
0.371,2.98,-1.41,5.88
0.372,1.65,-1.33,3.84
0.373,1.33,-1.53,3.3
0.374,1.41,-1.53,3.33
0.375,1.84,-1.65,4
0.376,1.8,-1.88,4.67
0.377,2.39,-1.61,5.49
0.378,3.88,-1.37,7.18
0.379,4.82,-2.04,8.12
0.38,5.81,-2.39,9.89
0.381,5.81,-1.65,10.75
0.382,5.49,-1.02,11.14
0.383,7.49,-2.28,10.98
0.384,5.88,-3.65,9.41
0.385,4.31,-3.22,8.04
0.386,2.94,-2.9,6.67
0.387,2.28,-3.06,5.61
0.388,1.65,-3.14,4.9
0.389,1.73,-2.9,5.37
0.39,1.57,-2.9,6.16
0.391,1.96,-2.79,8
0.392,2.43,-2.82,9.65
0.393,2.43,-3.1,10.24
0.394,2.35,-3.92,10.24
0.395,3.69,-5.3,14.67
0.396,7.57,-1.53,15.61
0.397,3.73,-2,10.16
0.398,3.02,-2.35,9.45
0.399,5.53,-1.33,10.75
0.4,4.71,-0.9,9.41
0.401,3.49,-1.1,5.92
0.402,2.35,-1.02,4.12
0.403,1.77,-1.29,3.33
0.404,1.29,-1.02,2.67
0.405,1.49,-1.26,2.75
0.406,2.31,-1.61,4.16
0.407,3.26,-1.29,5.69
0.408,4.39,-1.29,7.06
0.409,4.98,-1.57,7.61
0.41,6.12,-2.59,8.71
0.411,7.14,-2.43,10.28
0.412,5.69,-0.67,10.12
0.413,7.53,-1.69,11.14
0.414,7.69,-2.43,10.59
0.415,6.08,-2.86,9.06
0.416,3.84,-2.55,6.59
0.417,2.39,-2.59,5.18
0.418,1.73,-2.67,4.59
0.419,1.14,-2.51,4.82
0.42,1.45,-2.63,5.84
0.421,1.84,-3.1,6.94
0.422,2.47,-3.18,9.26
0.423,2.94,-2.98,10.67
0.424,3.02,-3.92,10.9
0.425,2.39,-5.57,12.16
0.426,5.81,-2.12,16.28
0.427,4.47,-1.84,11.69
0.428,2.04,-3.49,9.18
0.429,3.1,-1.96,10.36
0.43,4.24,-1.65,11.1
0.431,3.26,-1.33,7.85
0.432,2.47,-1.33,4.94
0.433,1.65,-1.69,3.77
0.434,1.26,-1.29,2.94
0.435,1.57,-1.53,3.22
0.436,1.92,-1.88,4
0.437,2.86,-1.92,5.41
0.438,4.39,-1.77,6.83
0.439,4.86,-1.8,6.59
0.44,5.77,-3.18,8.83
0.441,6.51,-1.8,10.04
0.442,4.79,-1.29,10.04
0.443,6.86,-2.63,10.71
0.444,6.47,-3.53,9.89
0.445,5.61,-3.69,8.67
0.446,4.28,-3.3,7.22
0.447,3.1,-2.9,6.16
0.448,2.51,-2.75,5.45
0.449,2.59,-3.3,5.73
0.45,2.98,-3.22,6.55
0.451,3.02,-2.86,8.08
0.452,3.37,-2.24,9.49
0.453,3.69,-1.45,9.85
0.454,3.88,-1.29,8.79
0.455,4.12,-2.39,8.94
0.456,5.57,-1.45,11.73
0.457,3.8,0.67,9.49
0.458,2.31,-1.06,7.22
0.459,2.79,-1.22,7.69
0.46,2.63,-0.67,8.83
0.461,2.71,-0.47,8.87
0.462,2.2,-0.98,7.77
0.463,1.77,-0.9,7.34
0.464,2.31,-0.75,8.2
0.465,2.47,-0.94,8.67
0.466,2.43,-1.37,8.08
0.467,2.75,-2.43,7.88
0.468,2.86,-2.67,8.43
0.469,3.45,-2.2,10
0.47,3.41,-1.45,9.06
0.471,2.67,-1.88,7.22
0.472,2.94,-2.31,6.86
0.473,3.49,-2.63,7.3
0.474,3.8,-2.67,8.79
0.475,4.31,-2.28,9.81
0.476,3.26,-1.92,8.63
0.477,2.86,-2.31,7.41
0.478,2.98,-2.35,7.34
0.479,3.18,-2.16,7.61
0.48,3.57,-2.24,8.24
0.481,3.73,-2.24,8.32
0.482,3.45,-2.2,8.12
0.483,3.45,-2.28,8
0.484,3.49,-2.35,7.85
0.485,3.45,-2.39,7.96
0.486,3.77,-2.28,8
0.487,3.73,-2.28,7.92
