NAME:,walk_2_1,,
EXPERIMENT TIME:,Thu Jun 08 14:03:40 GMT+03:00 2023,,
ACTIVITY TYPE:,Walking,,
COUNT OF ACTUAL STEPS,117,,
,,,
Time [sec], ACC X,ACC Y,ACC Z
0,8.9,-2.28,2.71
0.101,8.24,-1.65,3.02
0.202,9.22,-3.65,3.61
0.303,10.43,-2.51,4.04
0.404,14.04,-0.98,-2.12
0.505,7.26,-2.47,-0.51
0.606,10.04,-2.59,-0.75
0.707,6.9,-3.45,0.31
0.808,13.65,-4.04,0.39
0.909,10.59,-3.02,-1.88
1.01,12.2,-3.88,-0.12
1.111,4.16,-1.45,1.26
1.212,6.2,-1.29,1.57
1.313,11.18,-6.98,5.65
1.414,8.36,2.12,0.51
1.515,13.3,-2.47,-2.28
1.616,4.28,-4.12,-1.49
1.717,10.43,-2.75,-1.84
1.818,11.18,-4.67,0.9
1.919,11.45,-2.86,-4.59
2.02,11.69,-1.77,-0.94
2.121,3.3,-0.16,0.75
2.222,7.18,-0.94,1.77
2.323,10.9,-7.22,6.35
2.424,5.57,1.73,-0.27
2.525,10,0.35,-2.04
2.626,6.51,-3.41,-1.69
2.727,9.3,-1.92,-0.51
2.828,10.87,-4.71,1.41
2.929,14.79,0.63,-5.53
3.03,13.3,-3.33,-1.29
3.131,4.39,-0.24,0.16
3.232,4.79,-0.16,2
3.333,12.24,-5.81,3.1
3.434,20.01,-0.16,-2.47
3.535,11.1,-5.37,-1.06
3.636,3.37,-1.37,-0.67
3.737,8.12,-4.9,0.04
3.838,9.85,-3.41,0.75
3.939,15.3,-4.2,-4.94
4.04,14.71,-0.78,-1.14
4.141,4.82,-0.27,0.16
4.242,5.06,-1.02,1.49
4.343,14.95,-5.77,1.84
4.444,20.01,-0.35,0.75
4.545,12.04,-4.86,-1.69
4.646,4.9,-0.75,-0.78
4.747,8.39,-5.57,0.31
4.848,10.36,-2.08,-0.39
1.37E+04,17.42,-4.39,-5.88
5.252,5.88,-0.78,1.29
5.353,14.98,-3.92,-0.27
5.454,20.01,-1.37,-2.24
5.555,7.37,-5.22,-0.75
5.656,6.12,0.82,-1.26
5.757,7.69,-5.81,-0.27
5.858,10.63,-2.24,0.12
5.959,16.87,-4.75,-5.33
6.06,12.24,-1.61,-0.2
6.161,6.28,-0.51,-0.47
6.262,5.57,-1.29,1.33
6.363,13.18,-3.84,0.08
6.464,19.89,-1.1,-1.29
6.565,4.31,-1.45,0.55
6.666,7.26,1.45,-0.71
6.767,8.98,-3.61,-1.53
6.868,10,-1.26,-0.55
6.969,12.24,-4.43,-0.94
7.07,12.24,1.14,-1.45
7.171,10.04,-5.26,-0.82
7.272,4.2,-1.22,1.14
7.373,7.81,-1.57,1.45
7.474,12.83,-6.63,6.28
7.575,7.61,3.65,-1.22
7.676,11.53,-0.78,-1.45
7.777,6.83,-4.86,-0.27
7.878,9.85,-6.63,0.86
7.979,11.57,-3.02,0.31
8.08,13.26,-2.82,-4
8.181,13.89,-2.08,-1.33
8.282,5.92,-1.8,-0.39
8.383,5.14,-2.47,2
8.484,15.34,-3.88,-0.39
8.585,20.01,-2.94,0
8.686,8.55,-1.73,-1.88
8.787,5.65,-0.12,-1.53
8.888,7.49,-5.53,-0.08
8.989,10.12,-2.67,-0.16
9.09,15.93,-2.39,-2.67
9.191,11.22,0.71,-0.55
9.292,8.47,-2.98,-0.43
9.393,3.22,-2.67,1.53
9.494,11.69,-2.75,0.27
9.595,17.06,-3.49,2.2
9.696,7.61,-1.88,-1.29
9.797,7.3,0.55,-0.51
9.898,8.08,-2.94,-1.8
9.999,9.49,-2.51,0.35
10.1,15.14,-2.59,-0.9
10.201,10.12,-1.92,-1.37
10.302,10.43,-4.43,-0.55
10.403,3.02,-0.71,0.9
10.504,10.04,-1.84,0.63
10.605,10.63,-5.33,1.88
10.706,5.49,2.28,-1.61
10.807,10.9,1.26,-0.31
10.908,7.61,-3.49,-2.12
11.009,8.71,-4.2,-0.55
11.11,12.32,-3.33,0.63
11.211,9.57,-1.92,-3.22
11.312,14.04,-5.22,-0.47
11.413,4.28,1.06,0.43
11.514,6.47,-2.04,1.18
11.615,13.06,-4.24,3.18
11.716,18.95,-1.61,-0.2
11.817,12.12,-3.22,-1.22
11.918,4.31,-2,-0.63
12.019,9.34,-5.65,0.08
12.12,10.12,-2.71,-0.31
12.221,14.83,-4.31,-3.88
12.322,14.36,-0.67,-1.1
12.423,5.73,-1.53,-0.2
12.524,3.65,-1.92,2.08
12.625,16.83,-4.04,1.29
12.726,20.01,-2,-2.08
12.827,6.86,-3.33,-0.59
12.928,7.1,-0.43,-1.37
13.029,7.81,-3.96,-0.24
13.13,10.98,-1.88,-0.71
13.231,16.63,-3.22,-3.41
13.332,13.49,-0.31,-0.55
13.433,5.61,-2.94,-1.18
13.534,4.98,-0.71,1.84
13.635,13.18,-4.12,-0.63
13.736,20.01,2.47,-1.88
13.837,8.83,-2.82,-1.8
13.938,4.98,-0.04,-1.8
14.039,9.61,-4.43,0.24
14.14,8.55,-4.55,0.08
14.241,14.95,-1.57,-1.33
14.342,12.51,-1.84,0.16
14.443,7.06,-2.55,0.08
14.544,4.08,-4,2
14.645,11.92,-2.55,0.94
14.746,13.65,-1.69,-0.59
14.847,5.65,-4.04,-0.67
14.948,8.98,-0.75,-1.33
15.049,6.86,-0.71,-0.55
15.15,10.9,-2.35,-0.39
15.251,10.63,-5.88,0.2
15.352,13.18,-2.24,-4.16
15.453,10.55,-2.9,-0.67
15.554,4.82,0.24,0.16
15.655,8.39,0.27,1.69
15.756,10.79,-6.94,4.08
15.857,20.01,0.71,-3.33
15.958,9.06,-5.84,-1.49
16.059,4.98,-2.16,-1.02
16.16,7.02,-4.82,0.98
16.261,10.12,-4.08,0.75
16.362,12.91,-3.69,-6.16
16.463,15.14,-2.55,-1.65
16.564,5.06,-0.35,0.24
16.665,5.84,-1.49,1.37
16.766,14.36,-3.8,0.2
16.867,20.01,-1.41,-1.61
16.968,9.57,-4.94,-1.02
17.069,6.35,-0.35,-0.39
17.17,8.67,-4.75,-0.51
17.271,10.08,-2.9,-0.55
17.372,16.51,-4.35,-3.96
17.473,11.92,-0.27,-0.27
17.574,6.08,-2.47,-0.39
17.675,5.14,-1.29,1.8
17.776,11.85,-3.33,0.35
17.877,10.98,-4.79,2.51
17.978,7.37,0.27,-0.78
18.079,7.69,1.57,-0.27
18.18,7.49,-2.55,-1.8
18.281,9.34,-3.96,-0.75
18.382,12.87,-3.02,-1.06
18.483,9.06,-1.92,-1.77
18.584,11.3,-4.47,-1.18
18.685,4.31,0.75,0.55
18.786,8.12,-1.69,1.84
18.887,11.1,-5.49,4.35
18.988,11.49,0.9,-0.59
19.089,11.45,-3.8,-2.2
19.19,5.92,-1.29,-0.98
19.291,9.22,-3.88,-0.04
1.52E+04,12.47,-1.1,-0.78
19.594,12.04,-3.45,-0.86
19.695,6.32,-0.86,0.31
19.796,5.88,-2.16,1.14
19.897,11.69,-2.67,0.27
19.998,19.93,-2.47,1.26
20.099,6.32,-2.04,-0.47
20.2,6.16,-0.16,-0.43
20.301,8.24,-1.77,-1.26
20.402,9.38,-2.43,0.47
20.503,13.77,-3.65,-1.65
20.604,9.89,-2.12,-0.63
20.705,10.59,-4.59,-1.26
1412.7191,3.45,-0.12,0.51
21.008,11.65,-5.81,6.51
21.109,10.98,2.47,-0.63
21.21,10.59,-2.63,-1.53
21.311,6.63,-2.43,-1.29
21.412,8.9,-5.73,-0.59
21.513,12.04,-3.84,-0.94
21.614,14.71,-3.88,-3.49
21.715,14.12,-0.35,-1.88
21.816,6.04,-1.84,-0.12
21.917,5.49,-2.55,2.71
22.018,13.49,-3.49,-1.06
22.119,18.83,-1.53,0
22.22,7.73,-0.39,-0.39
22.321,6.51,0.24,-0.27
22.422,8.47,-3.8,-1.02
22.523,8.75,-3.1,-1.06
22.624,13.49,-3.02,0.08
22.725,11.92,-2.71,-4.43
22.826,13.45,-1.96,-2
22.927,5.33,-0.2,0.67
23.028,5.69,-2.24,2.12
23.129,12.83,-2.79,1.57
23.23,17.18,-1.41,1.61
23.331,10.75,-3.41,-0.16
23.432,5.57,0.51,-0.94
23.533,8.94,-3.22,-1.26
23.634,9.77,-1.73,0.63
23.735,15.53,-3.77,-0.82
23.836,10.24,-0.47,-2.16
23.937,10.75,-2.86,-0.63
24.038,3.22,-0.47,0.75
24.139,8.83,-1.45,1.73
24.24,10.75,-5.18,4.71
24.341,15.77,0.86,0.39
24.442,14.4,-5.1,-2.31
24.543,6.43,-1.45,-2.28
24.644,9.22,-5.49,-0.67
24.745,10.2,-2.94,0.75
24.846,15.93,-4.08,-5.26
24.947,12.67,1.8,-0.43
25.048,8.28,-3.73,-0.51
25.149,3.73,-1.29,1.61
25.25,11.65,-2.59,-1.1
25.351,11.73,-5.1,-1.53
25.452,6,0,-1.29
25.553,9.45,2.9,-0.04
25.654,5.88,-3.06,-1.73
25.755,9.34,-4.04,-0.47
25.856,11.41,-4.28,0.24
25.957,13.3,-3.41,-4.63
26.058,13.53,-1.06,-0.24
26.159,5.81,-1.18,-0.67
26.26,5.81,-2.59,1.73
26.361,14.75,-2.79,0.94
26.462,20.01,-2.28,-0.51
26.563,12.87,-3.14,-1.37
26.664,5.92,-0.98,-1.41
26.765,9.53,-4.28,-0.9
26.866,8.9,-2.43,-0.04
26.967,15.38,-3.49,-1.49
27.068,10.63,-0.82,-1.8
27.169,8.79,-5.02,-0.43
27.27,4.35,-0.31,1.33
27.371,9.92,-2.98,1.45
27.472,9.3,-5.77,3.92
27.573,6.79,2.71,-1.02
27.674,11.22,-0.67,-0.27
27.775,7.57,-3.92,-1.22
27.876,7.96,-3.92,0
27.977,10.2,-3.96,0.08
28.078,13.14,-4.51,-4.04
28.179,15.38,-2.75,-1.61
28.28,5.65,-0.55,0.39
28.381,5.45,-3.02,1.41
28.482,14.32,-2.82,1.1
28.583,20.01,-1.96,-0.98
28.684,7.26,-3.45,-0.2
28.785,7.1,0.43,-0.2
28.886,7.92,-3.8,-1.06
28.987,9.41,-2.04,-0.71
29.088,13.85,-3.41,-0.67
29.189,9.65,-1.06,-1.96
29.29,10.71,-5.06,-1.06
29.391,4.16,-0.16,1.06
29.492,8.75,-2.39,0.98
29.593,11.49,-4.98,4.98
29.694,10.67,1.73,-0.98
29.795,12.51,-2.28,-0.98
29.896,6.71,-4.67,-0.94
29.997,9.02,-4.08,0.63
30.098,9.3,-5.02,0.16
30.199,14,-2.55,-2.98
30.3,14.32,0.04,-0.59
30.401,6.12,-2.79,0.47
30.502,5.37,-1.96,2.63
30.603,13.53,-3.92,0.75
30.704,15.42,0.71,-0.98
30.805,7.3,-2.24,-0.27
30.906,8.75,1.53,-0.75
31.007,7.81,-3.92,-1.22
31.108,8.71,-4.67,-0.2
31.209,12.51,-1.73,-0.24
31.31,9.06,-1.37,-1.49
31.411,12.28,-4.98,-0.2
1519.7775,5.22,0.35,0.86
31.714,11.77,-4.47,5.33
31.815,17.69,-0.12,-2.82
31.916,9.38,-5.1,-0.86
32.017,7.18,-1.88,-0.51
32.118,8.71,-4.04,-0.24
32.219,9.96,-2.16,-0.71
32.32,13.85,-3.73,-1.77
32.421,9.96,-0.47,-0.86
32.522,9.57,-5.1,-1.14
32.623,5.69,-1.37,0.75
32.724,7.81,-2.82,0.2
32.825,11.45,-5.69,3.37
32.926,18.83,-0.98,-3.02
33.027,6.32,-4.24,-1.45
33.128,9.22,2.55,-1.84
33.229,5.61,-2.98,-2.59
33.33,10.71,-0.59,-2.55
33.431,10.55,-1.96,-1.92
33.532,8.12,-4.98,-1.92
33.633,9.22,-2.28,-2.04
33.734,10.4,-1.8,-1.88
33.835,12.79,-5.92,-3.22
33.936,9.34,-2.47,-3.73
34.037,11.41,-2.59,-2.24
34.138,7.49,-0.43,-0.27
34.239,7.49,-1.22,0.08
34.34,8.83,-1.18,0.78
34.441,9.38,-3.06,1.65
34.542,20.01,2.71,-7.26
34.643,8.43,-0.47,-1.84
34.744,8.32,-0.75,-2.28
34.845,9.1,-3.73,-1.8
34.946,6.94,-4.82,0.9
35.047,12.24,-2.67,1.14
35.148,11.1,-3.73,-5.02
35.249,11.89,0.51,-2.08
35.35,6.9,-2.86,0.47
35.451,5.18,-4.63,2.82
35.552,11.41,-3.8,1.26
35.653,12.55,-0.43,1.49
35.754,10,-2.86,-1.45
35.855,11.34,-3.06,0.12
35.956,7.73,-3.02,-0.63
36.057,7.61,-4.24,-1.1
36.158,11.1,-2.2,-1.49
36.259,13.18,-7.26,-2
36.36,10.67,-3.8,-1.49
36.461,10.98,-1.61,-1.26
36.562,4.82,-0.82,-0.24
36.663,9.41,-0.75,2.35
1.69E+04,8.87,-6.16,3.41
36.966,13.06,-2.28,-1.33
37.067,6.79,-2.55,-0.98
37.168,10.32,-4.67,0.27
37.269,9.96,-5.33,-0.94
37.37,14.32,-5.22,-2.9
37.471,11.89,-0.71,-0.75
37.572,7.96,-2.28,0
37.673,6.08,-1.26,-0.35
37.774,10.28,-0.63,1.61
37.875,9.77,-4.79,2.82
37.976,6.16,1.84,-1.84
38.077,10.36,1.33,-0.12
38.178,7.49,-4.55,-1.22
38.279,8.24,-4.9,-0.12
38.38,11.41,-4,0.04
38.481,12.32,-6.12,-2.94
38.582,12.67,-1.92,0.16
38.683,7.77,-1.61,0.27
38.784,5.1,-1.65,0.98
38.885,11.26,-2.31,0
38.986,10.08,-4.86,2.55
39.087,8.83,2.51,-1.65
39.188,10.4,0.35,0
39.289,7.37,-3.61,-1.65
39.39,8.2,-4.39,0.98
39.491,9.73,-5.18,0.35
39.592,12.71,-2.59,-2.98
39.693,13.73,-0.94,-1.37
39.794,5.81,-3.65,2.08
39.895,6.35,-3.18,2.86
39.996,11.81,-3.14,1.41
40.097,10.87,-2.9,5.41
40.198,9.96,2.04,-0.98
40.299,12.24,-2.9,-2.63
40.4,5.84,-3.53,-1.29
40.501,8.47,-3.96,-0.31
40.602,11.18,-4,0
40.703,12.43,-8.12,-0.31
40.804,10.71,-3.88,-2.39
40.905,12.12,-1.45,-0.24
41.006,7.34,-2.98,0.59
41.107,3.77,-0.9,2.16
41.208,11.3,-4.98,3.8
41.309,14.08,-0.82,1.49
41.41,11.53,0,-1.06
41.511,6.9,-3.02,-2.2
41.612,6.16,-1.45,-0.86
41.713,8.94,-3.84,-0.2
41.814,18.12,-5.92,-3.06
41.915,9.57,-0.04,-1.45
42.016,11.38,-3.96,-1.02
42.117,5.69,-0.51,1.37
42.218,4.9,-1.53,1.33
42.319,16.51,-4.9,3.37
42.42,11.34,-0.71,1.96
42.521,9.1,-2.04,0.31
42.622,8.28,-2.04,-1.26
42.723,7.41,-2.31,-1.41
42.824,8.51,-4.39,-0.39
42.925,17.18,-7.34,-1.45
43.026,9.38,-1.61,-1.77
43.127,11.34,-2.12,-1.37
43.228,6.67,0.24,0.59
43.329,5.45,-0.71,1.37
43.43,7.85,-2.39,3.69
43.531,20.01,-4.94,3.77
43.632,10.2,0.86,-0.55
43.733,9.81,-1.02,-0.24
43.834,5.53,-0.63,-2.43
43.935,6.47,-3.92,-0.75
44.036,10.59,-4.82,-0.63
44.137,10.55,-3.57,0.04
44.238,13.85,-4.82,-1.73
44.339,11.14,-3.22,0.47
44.44,7.22,-0.67,-0.35
44.541,5.22,0.04,1.29
44.642,10.28,-3.22,1.96
44.743,10.24,-6.98,4.28
44.844,8.16,2.51,-1.69
44.945,10.47,-0.35,-1.37
45.046,7.3,-3.22,-0.9
45.147,9.65,-6.04,0.94
45.248,9.3,-3.26,0.67
45.349,13.57,-4.82,-1.65
45.45,10.4,-1.65,-1.14
45.551,9.38,-5.33,0.12
45.652,4.79,-1.1,1.33
45.753,9.34,-1.73,1.61
45.854,11.49,-6.55,4.51
45.955,8.59,2.98,0.24
46.056,12.59,-1.69,-1.1
46.157,6.98,-1.37,-0.82
46.258,9.61,-6.28,-0.08
46.359,9.41,-4.86,0.04
46.46,13.61,-3.3,-0.63
46.561,10.36,-0.78,-1.14
46.662,11.96,-5.88,0.08
46.763,4.63,-1.96,1.45
46.864,7.49,-2.16,1.88
46.965,12.47,-3.41,1.92
47.066,19.18,-2,1.02
47.167,6.71,-1.88,-0.9
47.268,7.77,0.08,-0.71
47.369,8.39,-4.82,-0.75
47.47,7.88,-3.69,0.82
47.571,11.22,-3.8,0.9
47.672,13.45,-3.26,-4.04
47.773,12.16,-3.96,0.39
47.874,6.63,-1.37,0.35
47.975,5.49,-1.02,1.8
48.076,12.79,-3.06,-0.78
48.177,9.69,-6.04,1.22
48.278,5.81,3.53,-2.08
48.379,15.49,0.35,-1.53
48.48,6.47,-3.49,-1.37
48.581,8.9,-4.86,1.06
48.682,9.77,-3.73,1.37
48.783,14.32,-4.43,-2.67
48.884,16.32,-1.02,-0.55
48.985,8.24,-1.8,0.78
49.086,6.39,-1.14,1.92
49.187,7.73,-3.26,2.98
49.288,15.06,-4.79,3.37
49.389,9.22,0.31,-0.78
49.49,10.32,-2.63,0
49.591,4.82,-1.96,-0.31
49.692,6.24,-2.71,1.14
49.793,16.95,-9.81,-2.75
49.894,11.61,0.78,-2.31
49.995,9.38,-2.35,-1.29
50.096,5.22,0.82,0.35
50.197,3.65,-2.86,1.69
50.298,13.1,-3.02,3.06
50.399,10.47,-1.41,1.06
50.5,12.2,-0.63,-0.16
50.601,8,-3.45,-1.8
50.702,5.26,-1.73,-0.31
50.803,10.47,-4.51,0.16
50.904,16.75,-2.59,-2.9
51.005,11.18,-2.04,-0.82
51.106,6.86,-1.92,0.27
51.207,6.24,-1.33,1.1
51.308,6.24,-1.41,4.04
51.409,14.04,-2.04,3.45
51.51,8.9,-2.28,0.08
51.611,8.71,-3.22,0.04
51.712,7.14,-2.04,-0.63
51.813,8.39,-5.02,-0.31
51.914,14.75,-3.88,-2.55
52.015,12.04,-3.1,-3.37
52.116,8.04,-2.55,0.75
52.217,8.16,-0.16,-0.47
52.318,4.71,-0.78,0.39
52.419,6.32,-2.51,2.79
52.52,12.36,-6.32,4.67
52.621,11.02,0.71,-0.98
52.722,14.59,0.67,-2.39
52.823,6.32,-1.96,-0.98
52.924,7.3,-4.94,0.16
53.025,9.89,-4.35,0.78
53.126,15.3,-2.82,-2.82
53.227,13.14,-1.26,-0.16
53.328,6.94,-5.02,-0.04
53.429,3.61,-0.59,1.37
53.53,10.08,-2.59,1.26
53.631,10.32,-6.51,5.1
53.732,7.69,3.3,-0.47
53.833,11.96,-0.59,-1.69
53.934,7.88,-5.14,-1.33
54.035,8.83,-6.47,0.63
54.136,10.55,-4.31,0.82
54.237,14.87,-6.51,-2.94
54.338,13.89,-1.33,0.24
54.439,5.61,-0.71,0.12
54.54,5.06,-1.14,2.04
54.641,13.93,-4.67,0.2
54.742,19.38,-0.63,-0.86
54.843,6.47,-2.24,-0.31
54.944,8.04,1.57,0.04
55.045,7.49,-5.02,-1.18
55.146,8.94,-2.08,0.55
55.247,12.55,-4.86,0.31
55.348,10.59,-2.08,-1.18
55.449,10.98,-5.77,0.51
55.55,4.59,-0.35,1.14
55.651,7.73,-1.88,1.29
55.752,12.36,-5.22,2
55.853,15.57,2.04,-2.63
55.954,8.28,-1.18,-0.67
56.055,9.41,-0.63,-0.63
56.156,8.12,-5.57,1.1
56.257,10.24,-3.18,0.47
56.358,14.71,-9.81,-2.47
56.459,10.83,-3.88,-1.8
56.56,10.59,0.16,-3.1
56.661,5.81,-1.06,0.24
56.762,4.59,-2.51,1.84
56.863,10.94,-6,4.35
56.964,12.51,-2.39,1.65
57.065,10.51,-0.47,-0.12
57.166,6.63,-4.24,-1.53
57.267,7.02,-1.14,-0.82
57.368,10.83,-6.83,0.12
57.469,18.32,-4.98,-3.18
57.57,9.69,-1.96,-0.12
57.671,8.87,-3.84,-0.04
57.772,5.18,0.35,1.65
57.873,8.39,-2.35,3.53
57.974,17.77,-4.63,2.39
58.075,9.22,-0.78,-0.82
58.176,9.18,-2.39,-0.08
58.277,6.04,-2,-0.82
58.378,7.26,-4.71,0.31
58.479,13.69,-6.39,-2.24
58.58,10.12,-1.26,-1.26
58.681,11.85,-2.98,-0.08
58.782,5.14,-0.98,0.51
58.883,5.61,-1.57,1.84
58.984,14.08,-4.39,3.77
59.085,11.02,-1.18,2.24
59.186,10.2,-2.55,-0.08
59.287,6.71,-3.06,-1.8
59.388,6.75,-2.67,-0.67
59.489,7.49,-4.35,-0.78
59.59,14.28,-8.55,-1.02
59.691,12.36,-1.84,-3.96
59.792,9.3,-2.35,0.35
59.893,6.71,0,-0.47
59.994,4.9,-0.55,0.35
60.095,6.59,-2.12,3.41
60.196,13.02,-4.63,3.41
60.297,4.9,-1.45,-0.86
60.398,9.92,0.67,-0.16
60.499,7.3,-3.57,-0.47
60.6,9.18,-5.14,0.9
60.701,13.89,-3.33,-0.31
60.802,10.08,-1.06,-0.47
60.903,11.92,-3.22,-0.51
61.004,3.1,-4.28,1.8
61.105,9.22,-4.55,2.39
61.206,13.22,-3.37,3.02
61.307,11.61,-0.86,-1.1
61.408,11.45,-1.33,-1.53
61.509,7.3,-1.37,-1.57
61.61,8,-6.35,-0.82
61.711,8.9,-2.79,-1.14
61.812,14.24,-3.22,-0.71
61.913,8.79,-2,-2.43
62.014,11.92,-7.41,-1.14
62.115,4.16,-1.65,1.92
62.216,5.53,-2,1.8
62.317,15.69,-5.06,2.59
62.418,17.57,0.71,-0.12
62.519,7.53,-3.02,-0.39
62.62,7.14,-0.39,-0.31
62.721,8,-6.24,0.24
62.822,9.92,-3.96,0.71
62.923,16.71,-3.02,-3.61
63.024,11.73,-0.78,-0.47
63.125,7.57,-3.61,0.35
63.226,3.84,-2.47,2.59
63.327,13.53,-3.65,1.06
63.428,16.99,-3.45,0
63.529,6.39,-1.02,-0.43
63.63,8,-0.35,0.67
63.731,7.37,-4.75,-0.71
63.832,9.38,-2.24,0.55
63.933,12.12,-2.08,-0.08
64.034,11.89,-1.57,-1.57
64.135,8.2,-4.43,-0.63
64.236,8.16,-0.16,0.47
