NAME:,matan r 2,,
EXPERIMENT TIME:,Thu Jun 01 12:45:58 GMT+03:00 2023,,
ACTIVITY TYPE:,Running,,
COUNTS OF ACTUAL STEPS:,163,,
  , ,,
Time [sec],ACC X,ACC Y,ACC Z
0,5.61,-0.75,-3.84
0.067108864,9.57,-0.43,-5.49
0.134217728,12.04,0.16,-6.59
0.260046848,10.94,0.35,-13.26
0.318767104,7.02,3.92,-14.32
0.385875968,11.96,2.24,-11.77
0.494927872,4.86,0.24,-4.67
0.553648128,-2.31,-0.94,-3.14
0.637534208,2.2,-6.12,-10.12
0.729808896,18.36,-4.98,-15.69
0.79691776,14.04,-0.78,-8.51
0.88080384,-1.84,1.45,-2.47
0.96468992,-2.35,2.98,-4.16
1.048576,9.61,-1.37,-14.51
1.115684864,15.69,5.26,-12.83
1.21634816,8.24,-0.24,-4.82
1.283457024,-5.65,-1.29,-3.3
1.358954496,-0.47,-1.06,-3.26
1.434451968,20.01,-0.94,-20.01
1.526726656,16.71,-1.8,-11.22
1.610612736,1.65,0.78,-3.41
1.694498816,-7.53,4.55,-4.31
1.778384896,2.82,2.16,-4.24
1.862270976,20.01,9.89,-20.01
1.920991232,11.3,-2.75,-6.98
2.071986176,-3.3,-0.67,-1.49
2.130706432,-1.06,-2.2,-2.71
2.164260864,7.34,-8.16,-15.81
2.248146944,20.01,-2.12,-13.02
2.332033024,12.04,0.59,-4.82
2.424307712,-14.67,2.12,0.59
2.491416576,1.1,-0.55,-2.35
2.575302656,20.01,-0.12,-15.85
2.659188736,15.38,-3.45,-10.98
2.734686208,-0.35,0.59,-2.39
2.81018368,-5.53,-3.53,-2.43
2.89406976,3.1,-2.08,-7.14
3.036676096,20.01,-5.37,-12.79
3.112173568,13.93,2.31,-5.26
3.162505216,-15.65,0.47,-1.22
3.22961408,-0.04,2.24,-2.79
3.31350016,12.75,5.96,-18.75
3.39738624,20.01,-2.28,-8.79
3.456106496,4.43,-0.2,-5.02
3.539992576,-2.31,-1.22,-2.63
3.623878656,0.47,-0.35,-3.61
3.716153344,20.01,-4.08,-13.34
3.800039424,13.45,-0.94,-5.18
3.925868544,-0.16,5.49,-3.45
3.992977408,-4.79,1.73,-3.53
4.060086272,2.39,5.53,-10.67
4.127195136,20.01,-7.45,-9.41
4.185915392,14.28,-2.28,-5.61
4.269801472,-6.79,-1.06,-0.82
4.798283776,0.35,-3.06,-3.96
5.301600256,20.01,0.04,-15.02
5.32676608,16.75,0.27,-5.92
5.343543296,4.9,2.47,-3.53
5.351931904,-8.79,2.79,-2.94
5.360320512,7.57,1.73,-4.39
5.402263552,-7.49,2.9,-2
5.49453824,0.24,0.04,-4.04
5.586812928,20.01,11.22,-20.01
5.670699008,12.36,-2.31,-7.49
5.729419264,-0.35,-0.94,-1.57
5.83008256,-1.69,-3.41,-1.88
5.905580032,0.86,-2.79,-6.83
5.989466112,20.01,-1.65,-15.49
6.056574976,11.49,3.61,-6.2
6.132072448,-7.85,1.37,-0.39
6.215958528,0.55,1.53,-4.67
6.308233216,13.61,5.37,-13.45
6.392119296,19.53,6.86,-6.2
6.476005376,7.49,-1.06,-5.26
6.568280064,-5.96,-5.22,-1.41
6.635388928,1.65,-1.26,-3.84
6.7108864,20.01,0.86,-20.01
6.786383872,18.32,-2.35,-5.77
6.928990208,-1.73,2,-2
6.970933248,-4.98,3.22,-5.02
7.038042112,5.1,2.35,-3.84
7.1303168,20.01,8.67,-20.01
7.189037056,9.57,-0.98,-5.14
7.281311744,-6.83,-3.26,0.78
7.356809216,-0.24,-0.16,-3.61
7.440695296,20.01,0.82,-5.14
7.532969984,19.57,-1.37,-8.2
7.59169024,6.28,4,-5.73
7.67557632,-9.73,4.12,-1.37
7.7594624,1.22,1.96,-4.94
7.893680128,20.01,9.57,-20.01
7.935623168,9.45,-1.92,-6.28
7.994343424,-1.88,-2.51,0.16
8.086618112,-1.8,-3.18,-3.8
8.1788928,6.32,-3.77,-11.06
8.246001664,20.01,-3.65,-10.9
8.338276352,9.77,3.92,-6.39
8.413773824,-7.57,1.37,-1.06
8.480882688,0.16,2.43,-5.26
8.564768768,20.01,1.88,-20.01
8.648654848,11.77,3.45,-9.85
8.791261184,0.47,-0.55,-2.75
8.84998144,-4.35,-6.35,-2.55
8.89192448,-3.49,-2.86,-16.55
8.984199168,20.01,-2.59,-11.45
9.05969664,12.12,3.73,-5.69
9.151971328,-11.61,2.79,-1.77
9.210691584,1.57,1.41,-5.14
9.31135488,20.01,-3.92,-19.81
9.39524096,16.12,5.3,-7.81
9.470738432,4.39,-1.69,-2.94
9.537847296,-5.3,-5.69,-2.39
9.663676416,1.8,-0.39,-5.96
9.73078528,20.01,-4.08,-20.01
9.797894144,12.63,0.12,-5.73
9.865003008,-9.22,1.29,-0.24
9.957277696,-1.06,2,-5.33
10.04116378,9.73,8.12,-9.34
10.12504986,20.01,5.84,-6.67
10.19215872,8.55,-0.9,-4.2
10.2760448,-9.49,-5.14,-0.9
10.78774989,1.88,0.47,-4.2
10.7961385,20.01,2.67,-20.01
10.81291571,16.28,0.55,-8.94
10.82130432,-1.61,-0.43,0.24
10.82969293,-6.04,2.86,-4.04
10.83808154,20.01,8.55,-12.51
10.92196762,10.75,-0.63,-5.53
11.0058537,-7.92,-4.04,0.59
11.08973978,-0.2,-0.94,-3.37
11.16523725,20.01,-0.43,4.79
11.24912333,19.38,-2.16,-9.53
11.33300941,3.1,2.59,-3.41
11.39172966,-7.06,4.67,-2.16
11.47561574,2.39,0.24,-4.24
11.58466765,20.01,7.69,-20.01
11.65177651,12.47,-0.16,-5.45
11.71888538,-7.96,-0.59,-1.33
11.81954867,0.86,-2.08,-3.02
11.90343475,4.24,-5.18,-15.77
11.97893222,20.01,-1.1,-9.49
12.07120691,9.26,4.94,-6.79
12.12153856,-10.59,1.22,-0.24
12.21381325,1.57,0.24,-3.37
12.30608794,20.01,8.43,-13.45
12.38997402,15.18,7.73,-9.18
12.45708288,1.77,-2.12,-4
12.54096896,-3.1,-4.35,-2.43
12.61646643,2.98,1.65,-4.79
12.70035251,20.01,-1.65,-20.01
12.7926272,13.22,1.61,-5.69
12.87651328,-6.71,0.35,-0.63
12.93523354,-2.2,2.39,-4.67
13.02750822,0.75,9.18,-14.79
13.1113943,20.01,4.63,-9.81
13.20366899,10.24,-0.63,-4.2
13.26238925,-8.2,-1.45,-2.04
13.35466394,0.71,-0.63,-4.24
13.48049306,20.01,-4.16,-20.01
13.54760192,17.38,-1.06,-7.34
13.60632218,1.29,2.12,-1.41
13.68181965,-7.18,2.55,-3.06
13.76570573,4.47,5.1,-7.02
13.82442598,18.44,7.69,-19.89
13.91670067,10.04,0.16,-5.06
14.00058675,-6.9,0.04,-1.73
14.08447283,1.06,-3.77,-3.22
14.16835891,20.01,-7.69,2.39
14.23546778,14.87,-0.82,-9.34
14.32774246,5.73,3.22,-3.96
14.45357158,-8.47,4.16,-1.33
14.51229184,2.16,2.31,-5.33
14.5794007,20.01,2.98,-20.01
14.65489818,9.53,-0.47,-6.43
14.72200704,-0.78,-0.39,-2.04
14.80589312,-3.14,-3.41,-2.28
14.8897792,2.39,-2.04,-15.93
14.96527667,19.18,0.43,-6.16
15.05755136,9.81,3.8,-5.88
15.13304883,-11.3,1.92,0.08
15.22532352,2.2,1.29,-5.02
15.29243238,20.01,-1.06,-20.01
15.4182615,12.2,5.69,-7.73
15.47698176,-1.1,-1.06,-2.12
15.55247923,-2.71,-3.73,-2.82
15.6195881,3.1,-0.51,-5.61
15.71186278,20.01,-1.49,-20.01
15.78736026,16.12,2.82,-7.02
17.27214387,-6.67,0.9,-2.39
17.77546035,-2.31,2.28,-2.86
18.26199962,1.37,3.92,-17.22
18.27877683,19.97,7.57,-4.59
18.7653161,8.59,-1.73,-9.49
18.7737047,0.4,2.12,-0.47
19.26024397,0.59,-1.1,-3.61
19.2937984,19.97,-3.26,-15.18
19.30218701,20.01,-1.57,-10.91
19.32735283,-12.63,-0.16,-2.08
19.38607309,0.67,-0.9,-3.61
19.46995917,20.01,-2.04,-12.04
19.56223386,19.53,-2.16,-6.67
19.65450854,-1.37,1.92,-1.29
19.72161741,-3.65,3.57,-3.3
19.8138921,0.59,2.16,-3.92
19.89777818,20.01,-1.53,-20.01
19.94810982,9.3,-0.04,-6.86
20.04038451,-0.08,-0.78,-2.12
20.12427059,-2.98,-4.86,-2.94
20.19976806,2.98,0.51,-6.08
20.3423744,18.16,7.53,-14.87
20.37592883,13.65,1.02,-4.08
20.45981491,-8.55,0.63,-1.49
20.52692378,0.39,1.45,-4.24
20.61080986,1.69,8.24,-19.02
20.69469594,20.01,7.18,-4.35
20.78697062,10.51,-1.65,-3.53
20.84569088,-11.65,-4.43,3.1
20.93796557,2.94,-0.08,-3.45
21.03024026,20.01,3.92,-17.85
21.15606938,18.44,-3.26,-7.41
21.21478963,3.61,4.59,-2.98
21.2902871,-9.02,0.51,-2.51
21.34900736,3.1,0.82,-3.65
21.43289344,20.01,1.41,-20.01
21.4916137,13.69,2.67,-7.34
21.6006656,-2.51,-1.18,-1.57
21.65099725,-2.82,-3.1,-1.77
21.74327194,0.51,-3.02,-18.2
21.82715802,20.01,1.14,-13.1
21.9110441,11.22,2.82,-6.59
22.00331878,-11.22,2.43,-2.63
22.10398208,1.06,1.33,-4.51
22.16270234,15.14,10.87,-9.89
22.23819981,14.28,3.49,-1.22
22.31369728,6.79,-3.45,-3.26
22.40597197,-3.1,-5.22,-2.28
22.46469222,-0.12,0.71,-3.77
22.5485783,20.01,-2.63,-20.01
22.64085299,17.34,-4.43,-5.73
22.72473907,3.77,4.59,-4.9
22.81701376,-9.02,1.18,-1.65
22.88412262,2.28,0.78,-3.84
22.97639731,20.01,5.61,-20.01
23.068672,15.06,-0.51,-7.65
23.14416947,-1.33,-0.86,-1.41
23.21127834,-4.55,-4.67,-2.55
23.26999859,5.22,-3.06,-5.92
23.36227328,20.01,-2.12,-7.69
23.44615936,11.06,0.71,-6.12
23.53843405,-6.08,2.59,-2
23.5971543,-1.57,2.63,-3.49
23.6978176,0.16,3.73,-16.55
23.78170368,12.28,12.12,1.45
23.84042394,11.61,-0.67,-4.75
23.93269862,-6.2,-3.1,-2.16
24.02497331,0.78,-3.65,-1.84
24.10047078,20.01,-5.61,-20.01
24.15919104,18.36,-5.77,-4.86
24.26824294,1.53,2.2,-3.22
24.75478221,-8.51,2.98,-2.04
25.25809869,1.77,2.04,-4.71
25.2748759,20.01,-2,-20.01
25.28326451,14.36,1.69,-7.06
25.30843034,16.71,1.02,-4.9
25.39231642,8.2,-1.92,-2.94
25.4845911,-11.92,-1.73,-3.1
25.56008858,2.71,-2.12,-4.79
25.64397466,20.01,6.55,-20.01
25.71947213,17.97,-2.94,-3.26
25.78658099,-4.39,6.43,-2.55
25.87885568,-3.06,-0.04,-2.04
26.01307341,1.49,3.02,-5.81
26.08018227,20.01,10.59,-12.94
26.12212531,12.55,-4.98,-5.61
26.20601139,-7.53,-4.24,-2.24
26.28150886,-2.08,-0.86,-3.77
26.36539494,20.01,4.47,-19.81
26.44928102,19.02,-5.49,-7.18
26.51638989,-1.1,-0.55,-1.49
26.60027597,-8.24,3.53,-3.84
26.69255066,3.02,2.63,-4.28
26.78482534,20.01,8.55,-20.01
26.89387725,13.26,-0.35,-8.08
26.96098611,-4.51,-3.53,0.24
27.03648358,-3.1,-1.92,-2.9
27.07842662,8.43,-14.04,-11.14
27.1623127,20.01,-3.88,-12.2
27.25458739,8.28,2.24,-7.02
27.33847347,-7.57,4.31,-2.59
27.42235955,1.41,1.41,-2.39
27.49785702,20.01,2.51,-11.02
27.5733545,15.53,8.39,-8.55
27.65724058,5.14,-2.16,-4.12
27.74951526,-4.43,-3.77,-2.31
27.85017856,0.24,-0.82,-2.28
27.91728742,20.01,-0.78,-20.01
27.97600768,17.93,-6.59,-4.08
28.06828237,-6.67,3.8,-1.14
28.16055706,-2.98,2.39,-1.41
28.21927731,2.35,3.14,-14.83
28.30316339,19.97,6.35,-13.49
28.38704947,10.2,-1.61,-5.3
28.47932416,-8.04,-4.86,-1.37
28.53804442,0,0.39,-2.59
28.6219305,20.01,3.14,-17.61
28.71420518,19.3,-5.92,-9.02
28.81486848,2.08,1.18,-3.3
28.88197734,-10.04,6.47,-3.33
28.96586342,3.18,3.18,-2.59
29.0497495,20.01,4.2,-20.01
29.10846976,11.45,2.39,-9.45
29.20074445,-3.14,-4.39,-1.84
29.28463053,-1.53,-1.92,-2.75
29.36851661,4.79,-7.92,-19.14
29.44401408,16.95,-1.1,-13.02
29.53628877,9.69,1.37,-7.85
29.58662042,-10.55,4.55,-2.16
29.68728371,-0.16,0.27,-1.33
29.75439258,17.26,7.81,-16.08
29.89699891,19.85,11.26,-10.83
29.93894195,3.26,0.2,-2.67
30.00605082,-5.61,-3.73,-3.26
30.0899369,-0.67,-1.29,-3.8
30.16543437,20.01,-4.67,-20.01
30.26609766,15.65,-0.63,-8.67
30.73585971,-1.57,-0.24,1.69
31.26434202,-6.12,2.04,-2.82
31.27273062,6.35,3.14,-13.14
31.28111923,19.46,6.98,-13.1
31.28111923,9.57,0,-10.04
31.31467366,20.01,12.63,-20.01
31.38178253,9.26,0.78,-8.12
31.46566861,-3.22,-2.75,-0.16
31.54116608,-3.88,-4.2,-5.14
31.63344077,20.01,1.14,-15.42
31.7676585,18.87,-0.63,-14.63
31.82637875,10.47,2.28,-6.59
31.8767104,-6.2,1.02,-1.29
31.96059648,-1.92,1.14,-3.06
32.02770534,17.57,7.14,-14.98
32.11998003,17.53,8.51,-8.83
32.20386611,6.47,-0.27,-1.69
32.27097498,-10.04,-5.57,-2.59
32.35486106,3.92,-4.82,-8.28
32.43874714,20.01,-3.8,-20.01
32.52263322,17.42,-5.96,-4.82
32.64846234,-1.69,0.27,-0.82
32.7155712,-6.83,4.55,-2.2
32.78268006,3.49,2.71,-10.43
32.84140032,20.01,8.71,-20.01
32.9252864,9.34,-0.08,-5.33
33.01756109,-3.3,-3.06,-1.57
33.09305856,-2.75,-3.41,-7.81
33.17694464,20.01,-1.53,-20.01
33.2356649,18.16,-0.2,-10.08
33.32793958,1.8,-0.12,-2.08
33.42021427,-7.37,3.18,-4.51
33.48732314,2,7.02,-7.26
33.59637504,20.01,9.85,-20.01
33.6550953,8.79,1.29,-10.71
33.72220416,-1.53,-2.08,-1.61
33.81447885,-5.26,-3.49,-2
33.89836493,11.69,-1.22,-13.77
33.99063962,19.14,-3.77,-14.98
34.06613709,9.81,3.96,-6.51
34.14163456,-7.02,0.35,-1.02
34.22552064,-0.98,1.96,-2.67
34.30940672,9.89,5.65,-16.79
34.40168141,20.01,8.75,-9.34
34.46040166,7.02,0.71,-3.49
34.56106496,-7.57,-2.75,-2.9
34.62817382,2.04,-4.28,-4.31
34.69528269,20.01,-7.34,-20.01
34.80433459,17.61,-4.63,-10.43
34.86305485,-2.9,0.2,3.37
34.93855232,-6.39,3.77,-2.51
35.0224384,3.8,6.24,-17.06
35.10632448,15.3,5.73,-17.57
35.19859917,7.77,0.16,-4.55
35.28248525,-6.79,-1.33,-1.96
35.36637133,-0.55,-2.63,-3.88
35.43348019,19.97,-3.84,-19.61
35.51736627,16.04,-1.33,-8.39
35.64319539,0.71,1.22,-1.57
35.68513843,-7.45,3.3,-3.61
35.7522473,8.75,1.45,-14.36
35.83613338,18.55,7.77,-10.55
35.92001946,8.75,-0.04,-5.18
36.01229414,-3.96,-1.69,-3.02
36.09618022,-1.96,-2.04,-3.69
36.15490048,20.01,2.2,-19.97
36.24717517,18.36,-2.47,-12.55
37.2202537,4.2,1.69,-4.08
37.71518157,-10.08,0.9,-3.41
38.21010944,1.8,2.39,-4.82
38.24366387,20.01,8.2,-20.01
38.71342592,8.28,-1.61,-12.87
38.72181453,10.67,0.78,-6.16
39.2167424,-4,0,0.63
39.71167027,-5.14,2.16,-4.86
39.7368361,19.81,3.69,-19.73
39.7452247,12.87,3.53,-7.22
39.75361331,-1.57,-1.88,-0.86
39.75361331,-5.1,1.49,-4.12
39.76200192,10.32,5.14,-13.61
39.81233357,2.43,-0.75,-5.14
39.88783104,20.01,-4.31,-20.01
39.96332851,13.49,0.24,-6.86
40.0556032,-5.41,0.63,-1.06
40.13948928,-5.02,2.67,-4.04
40.22337536,-0.78,6.24,-11.22
40.29887283,20.01,5.61,-14.24
40.3743703,9.14,-0.78,-5.22
40.46664499,-5.1,-3.33,-2.86
40.54214246,-1.73,-1.77,-3.77
40.63441715,20.01,4.71,-20.01
40.69313741,20.01,-5.3,-8.08
40.77702349,3.65,0.47,-5.3
40.86929818,-10.83,2.94,-2.47
40.95318426,1.37,1.26,-3.8
41.01190451,20.01,1.45,-20.01
41.09579059,10.94,3.33,-7.65
41.17128806,-1.14,-2,-1.73
41.32228301,-3.92,-3.61,-1.65
41.38939187,1.65,-5.37,-10.67
41.4229463,20.01,-2,-17.38
41.50683238,11.69,2.04,-6
41.59910707,-8.36,1.53,-2.24
41.67460454,-0.9,1.22,-4.08
41.76687923,19.1,3.73,-14.98
41.82559949,17.5,5.73,-7.61
41.90948557,1.88,-0.55,-1.29
41.99337165,-4.94,-4.39,-3.61
42.07725773,1.53,-4.79,-6.08
42.20308685,20.01,-4.82,-20.01
42.27019571,12.79,0.2,-7.3
42.32891597,-7.61,1.26,-0.94
42.38763622,-3.8,2.63,-3.73
42.48829952,9.65,5.02,-13.85
42.55540838,19.61,4.28,-9.61
42.63929446,4.39,-1.45,-5.77
42.73995776,-5.1,-5.22,-1.77
42.79867802,1.22,0.04,-4.39
42.8825641,20.01,-6.35,-20.01
42.97483878,14.59,0,-7.14
43.05872486,-4.2,1.45,-0.71
43.18455398,-5.3,2.39,-5.06
43.25166285,-1.53,7.1,-13.53
43.31877171,20.01,8.79,-16.36
43.36071475,10.51,-0.35,-5.65
43.45298944,-3.96,-3.88,-3.1
43.53687552,-2.28,-0.24,-3.57
43.6207616,20.01,-0.55,-19.5
43.70464768,18.75,-2.2,-6.83
43.77175654,2,0.2,-3.69
43.87241984,-9.41,4.28,-4.08
43.9311401,3.88,3.14,-3.8
44.01502618,20.01,9.34,-20.01
44.11568947,11.53,-0.71,-4.94
44.17440973,-3.02,-2.2,-1.26
44.2499072,-3.8,-3.69,-3.3
44.33379328,12.32,-3.77,-15.22
44.42606797,19.85,-1.84,-12.32
44.50995405,8.71,0.82,-5.77
44.59384013,-9.69,3.69,-2.24
44.6693376,1.49,1.53,-2.98
45.1978199,20.01,2.16,-14.28
45.70113638,14.32,4.98,-9.57
45.73469082,1.65,-1.45,-1.53
45.73469082,-6.67,-5.1,-1.8
45.74307942,1.33,-4.79,-7.85
45.76824525,20.01,-1.1,-20.01
45.80179968,1.69,-0.2,-4.08
45.88568576,20.01,-6.08,-20.01
45.96118323,13.49,1.61,-8
46.0366807,-4.51,1.69,-0.71
46.17089843,-4.47,2.31,-4.04
46.22961869,6.83,7.3,-14.79
46.28833894,19.38,5.14,-8.71
46.38061363,9.53,-1.69,-6.28
46.4477225,-5.02,-2.9,-2.31
46.53999718,-0.71,-1.84,-3.53
46.62388326,20.01,0,-20.01
46.70776934,15.73,-0.43,-5.26
46.77487821,-0.59,0.08,-0.43
46.85876429,-5.77,3.14,-3.37
46.94265037,4.63,6.71,-16.28
47.00975923,20.01,7.65,-13.42
47.14397696,5.49,-0.9,-5.06
47.19430861,-5.61,-3.77,-0.98
47.26141747,-0.12,-0.27,-2.59
47.34530355,20.01,-1.61,-13.49
47.42918963,19.93,-3.57,-8.2
47.4962985,4.16,2.24,-5.57
47.58018458,-9.49,2.28,-1.92
47.66407066,3.06,2.63,-3.49
47.73956813,20.01,2.24,-20.01
47.84862003,12.08,4.08,-8.36
47.95767194,-4.47,-3.92,-1.45
48.0247808,0.16,1.22,-12.04
48.09188966,9.61,-4.94,-13.06
48.14222131,20.01,-0.63,-12.83
48.22610739,6.63,2.12,-5.73
48.30999347,-8.24,2.67,-2.59
48.39387955,2.51,1.84,-3.41
48.48615424,20.01,4.08,-20.01
48.5448745,15.34,5.77,-10.47
48.63714918,0.75,-1.49,-2.04
48.72103526,-7.73,-6.04,-2.47
48.80492134,4.08,-5.96,-8.08
48.91397325,20.01,-3.02,-20.01
48.9726935,14.55,1.77,-9.41
49.05657958,-3.84,0.39,-1.77
49.12368845,-4.79,2.2,-0.47
49.19079731,-2,10,-14.12
49.27468339,20.01,4.43,-10.32
49.3837353,9.22,-0.35,-2.82
49.45084416,-3.8,-3.1,-1.73
49.53473024,-0.78,-0.9,-3.8
49.61861632,19.65,-4.82,-20.01
49.67733658,14.12,1.73,-5.81
49.76122266,0.75,1.84,-1.61
49.87027456,-5.3,1.33,-4.47
49.93738342,3.3,8.75,-11.65
50.00449229,19.97,7.69,-10.87
50.09676698,6.86,-3.02,-4.59
50.18904166,-3.65,-2.86,-2.08
50.26453914,-0.71,-1.14,-3.53
50.35681382,19.85,-4.16,-20.01
50.41553408,16.87,-3.61,-7.88
50.50780877,-0.51,-0.12,0
50.60008346,-7.61,4.79,-3.1
50.65880371,3.18,3.77,-9.85
51.17889741,20.01,7.34,-20.01
51.68221389,9.1,-1.92,-6.28
51.71576832,-0.51,-3.22,-1.53
51.71576832,-3.49,-1.33,-2.71
51.72415693,11.26,-3.84,-10.9
51.74932275,19.85,-1.26,-7.73
51.75771136,-5.81,-5.26,-3.26
51.7996544,2.94,-4.31,-9.92
51.92548352,20.01,-0.94,-16.44
51.98420378,10.94,1.61,-6.59
52.04292403,-7.37,0.16,-0.75
52.12681011,-2.79,2.24,-3.26
52.19391898,6.47,5.81,-11.45
52.27780506,20.01,4.28,-3.06
52.36169114,6.71,-0.9,-3.8
52.45396582,-8.55,-5.49,-1.14
52.5294633,3.88,-0.98,-3.96
52.61334938,20.01,-1.1,-20.01
52.67206963,10.16,1.02,-8.08
52.81467597,-8.04,2.04,-1.22
52.88178483,-1.33,0.08,-2.04
52.94050509,4.9,4.9,-12.55
53.01600256,20.01,5.73,-15.42
53.09988864,8.67,-0.71,-5.49
53.17538611,-9.69,-5.41,-0.12
53.25088358,0.86,-1.06,-5.84
53.34315827,20.01,-7.1,-20.01
53.43543296,12.47,2.51,-6.75
53.48576461,-5.02,-2.16,-1.1
53.5780393,-3.1,0.78,-2.67
53.70386842,15.89,4.67,-15.14
53.77097728,17.57,5.73,-12
53.83808614,6.39,-2.28,-3.61
53.90519501,-5.3,-4.79,-1.49
53.98908109,2.16,-0.78,-4.79
54.07296717,20.01,-5.65,-20.01
54.13168742,9.65,0.08,-7.65
54.2155735,-7.61,2.2,-1.37
54.29945958,-1.45,0.39,-1.69
54.39173427,-2.12,7.88,-20.01
54.48400896,20.01,7.37,-13.45
54.54272922,9.02,-1.1,-5.96
54.66855834,-5.18,-4.04,-2.04
54.7356672,-1.49,0.08,-2.31
54.81116467,20.01,-5.53,-5.73
54.87827354,20.01,-4.71,-7.61
54.96215962,5.57,3.02,-5.33
55.0460457,-10.43,3.02,-1.73
55.11315456,2,0.12,-3.73
55.19704064,20.01,7.3,-20.01
55.28092672,13.45,2.94,-11.02
55.37320141,-0.47,-0.12,-1.06
55.44869888,-6.59,-5.14,-2.31
55.53258496,3.65,-3.77,-14.91
55.60808243,20.01,-2.39,-13.49
55.6751913,8.67,2.47,-6.32
55.81779763,-11.02,2.63,-1.53
55.86812928,1.65,2.2,-3.69
55.94362675,20.01,3.49,-15.14
56.00234701,17.26,7.92,-9.73
56.08623309,5.53,-2.43,-1.84
56.17011917,-6.94,-5.1,-1.77
56.25400525,1.18,-0.9,-4.16
56.34627994,20.01,-7.81,-20.01
56.40500019,14.75,-2.43,-8.24
56.48888627,-7.37,1.18,-2.47
56.56438374,-1.02,2.86,-3.8
56.69021286,17.93,4.24,-12.51
57.16836352,17.61,4.12,-3.88
57.67168,5.88,-0.55,-3.06
57.72201165,-6.79,-5.14,-1.96
57.72201165,0.59,-1.33,-5.41
57.73040026,20.01,-5.45,-20.01
57.74717747,0.24,0.35,-4.86
57.78912051,20.01,-7.06,-20.01
57.86461798,13.93,0.35,-7.77
57.95689267,-6.32,1.61,-0.24
58.04077875,-3.26,2.08,-2.59
58.11627622,3.96,4.43,-17.77
58.20855091,20.01,5.65,-7.61
58.29243699,6.47,-2.43,-3.69
58.36793446,-4.55,-2.08,-2.16
58.47698637,1.26,0.16,-1.53
58.54409523,20.01,-4.43,-20.01
58.6112041,15.81,0.94,-7.61
58.67831296,1.22,0.16,-3.84
58.77058765,-4.98,2.79,-2.98
58.85447373,2.9,4.28,-5.45
58.92158259,20.01,10.2,-14.95
59.00546867,11.65,-3.45,-6.67
59.08935475,-4.2,-0.2,-2.2
59.18162944,-2.12,-0.27,-1.8
59.2403497,20.01,-1.73,-12.75
59.31584717,16.16,-0.2,-7.65
59.44167629,3.69,0.67,-5.1
59.50878515,-8.24,4.08,-3.53
59.57589402,3.06,3.18,-2.67
59.64300288,19.93,5.37,-20.01
59.72688896,12.91,1.8,-7.53
59.81077504,1.96,-0.31,-2.08
59.90304973,-4.2,-3.84,-2.98
59.98693581,4.24,-10.16,-14.4
60.07082189,17.53,2.04,-10.24
60.12954214,11.1,2.12,-5.65
60.21342822,-8.12,1.77,-1.96
60.31409152,-0.24,1.18,-2.82
60.38958899,11.18,1.22,-16.87
60.45669786,16.12,3.33,-8.51
60.59091558,11.77,1.41,-4.9
60.64124723,-8.59,-1.33,-3.3
60.7083561,0.59,-0.75,-3.3
