NAME:,run_5_1,,
EXPERIMENT TIME:,Thu Jun 01 21:51:35 GMT+03:00 2023,,
ACTIVITY TYPE:,Running,,
COUNTS OF ACTUAL STEPS:,133,,
  , ,,
Time [sec],ACC X,ACC Y,ACC Z
0,-9.89,1.45,-5.41
0.067108864,-9.14,1.29,-5.22
0.16777216,-9.73,0.9,-4.9
0.234881024,-10.36,1.96,-5.3
0.318767104,-10,1.84,-5.57
0.402653184,-12,2.47,-7.53
0.494927872,-10.63,2.43,-7.45
0.570425344,-2.31,0.75,-1.1
0.654311424,-2.82,3.18,-0.55
0.729808896,-16.59,-1.53,-5.61
0.822083584,-18.28,-2.24,-4.63
0.889192448,-11.26,2.63,-5.14
0.973078528,0.78,-1.33,1.26
1.048576,-1.29,-1.61,-3.8
1.149239296,-11.77,2.28,-9.1
1.224736768,-16.04,4.55,-7.18
1.308622848,-17.97,1.96,-9.14
1.375731712,-9.69,-1.18,-3.65
1.451229184,0.35,2.86,0.47
1.535115264,1.06,0.08,-2.12
1.610612736,-12.2,-0.39,-8.87
1.711276032,-20.01,-1.53,-7.1
1.795162112,-20.01,-2.67,-8.08
1.870659584,-4.55,2.04,-1.33
1.937768448,-1.77,-0.67,0.9
2.01326592,-1.61,1.61,-1.61
2.113929216,-11.77,0.39,-6.12
2.197815296,-20.01,-0.39,-11.53
2.281701376,-19.38,1.49,-9.65
2.357198848,-3.14,1.02,-1.77
2.43269632,-4.47,-1.1,-0.71
2.5165824,-0.78,1.92,-1.96
2.608857088,-17.42,-3.61,-8.75
2.667577344,-20.01,6.24,-8.32
2.759852032,-18.4,-0.2,-5.92
2.826960896,-2.2,2.98,-0.67
2.927624192,-1.96,-0.71,-0.78
3.003121664,-0.9,0.08,-2.28
3.078619136,-15.38,11.1,-14.28
3.162505216,-20.01,-0.98,-1.57
3.246391296,-7.02,2.47,-5.41
3.321888768,2.31,-4.47,1.53
3.39738624,-2.55,5.81,-2.71
3.48127232,-6.28,-0.12,-4.98
3.556769792,-20.01,-3.41,-8.12
3.632267264,-20.01,1.29,-7.69
3.73293056,-4.71,1.53,-2.24
3.81681664,0.67,2.24,2.08
3.892314112,-3.37,-0.55,0
3.959422976,-9.14,-2.51,-6.63
4.060086272,-20.01,-1.49,-9.65
4.15236096,-19.06,4.63,-10.2
4.211081216,-6.98,-0.24,-1.22
4.286578688,-1.88,1.69,0.67
4.387241984,-0.63,-0.51,-2.71
4.479516672,-18.51,-1.14,-9.92
4.538236928,-20.01,6.35,-10.16
4.6137344,-17.46,2.04,-7.73
5.142216704,-0.39,-0.35,-0.67
5.192548352,-4.31,0.67,-1.06
5.209325568,0.39,-2.55,-1.73
5.226102784,-17.73,4.28,-18.12
5.24288,-20.01,-0.12,-7.73
5.259657216,-10.28,3.1,-4.86
5.301600256,1.8,-2.98,0.04
5.318377472,1.92,3.14,-3.77
5.36870912,-4.59,-0.16,0.24
5.435817984,-20.01,4.63,-7.85
5.511315456,-20.01,-0.47,-7.57
5.595201536,-9.57,4.51,-3.77
5.670699008,4.75,-1.22,0.86
5.754585088,-3.49,-2.98,-2.31
5.821693952,-5.77,-1.26,-5.14
5.930745856,-20.01,-1.22,-12.83
6.006243328,-20.01,1.14,-9.18
6.064963584,-2,1.61,-0.86
6.148849664,-4.67,2.08,-0.59
6.232735744,0.75,2.35,-2.71
6.316621824,-18.36,-2.12,-9.41
6.408896512,-20.01,3.02,-10.75
6.492782592,-13.96,2.47,-8.67
6.568280064,0.63,0.94,-0.51
6.643777536,-3.14,0.47,1.53
6.736052224,-2.55,-0.67,-4.28
6.811549696,-16.16,4.71,-13.77
6.895435776,-20.01,-0.2,-11.85
6.970933248,-16,-1.41,-7.22
7.04643072,4.28,-0.75,-0.31
7.121928192,-0.16,3.57,-1.73
7.197425664,-2.9,2.2,-2.47
7.306477568,-15.97,-2.04,-8.24
7.38197504,-20.01,3.14,-8.9
7.46586112,-10.83,2.31,-6.83
7.524581376,5.33,0.24,-0.08
7.608467456,-3.77,-0.67,-0.78
7.692353536,-8.9,-2,-4
7.776239616,-20.01,3.06,-9.96
7.851737088,-20.01,1.61,-11.02
7.944011776,-9.22,0.9,-6.71
8.019509248,2.47,-0.78,1.14
8.09500672,-2.12,3.02,-2.63
8.170504192,-5.3,1.88,-7.22
8.271167488,-20.01,3.8,-10
8.355053568,-20.01,2.08,-8.12
8.43055104,-7.1,1.06,-3.61
8.506048512,3.8,1.14,1.84
8.589934592,-4.31,0.86,-2.12
8.673820672,-9.26,1.73,-6.59
8.749318144,-20.01,2.55,-7.96
8.816427008,-16.67,2,-9.3
8.917090304,-1.73,-0.04,1.33
8.992587776,-2.55,-1.1,1.45
9.076473856,-0.86,2.12,-1.22
9.151971328,-19.93,-1.41,-6.75
9.235857408,-20.01,6.47,-8.98
9.31135488,-11.81,0.55,-6.55
9.403629568,4.63,1.92,-0.51
9.462349824,-2.71,-2.98,-1.61
9.571401728,-7.61,-2,-2.12
9.638510592,-20.01,2.63,-9.57
9.705619456,-20.01,2.31,-10.32
9.797894144,-8.51,2.24,-2.82
9.873391616,-1.26,0,0.59
9.957277696,1.18,1.33,-2.31
10.04116378,-11.49,-0.67,-9.69
10.13343846,-20.01,4.75,-4.79
10.65353216,-19.97,1.22,-7.14
11.15684864,-2.79,1.22,-1.49
11.17362586,-4.24,0.27,-1.57
11.20718029,-16.12,6.28,-14.16
11.2155689,-20.01,2.86,-8.94
11.23234611,-11.34,0.31,-7.88
11.24912333,1.65,-1.77,2.67
11.25751194,0.2,4.75,-2.43
11.26590054,-5.06,-1.26,-4.51
11.27428915,-20.01,-1.26,-8.2
11.29106637,-20.01,3.06,-7.53
11.29945498,-4.43,1.29,-4.16
11.33300941,2.71,0.71,0.27
11.37495245,-4.86,-2,-1.69
11.41689549,-13.93,-0.59,-0.86
11.50078157,-20.01,1.8,-8.39
11.58466765,-20.01,5.41,-9.61
11.65177651,-5.69,-0.08,-3.02
11.73566259,-1.37,0.55,-1.14
11.82793728,-1.06,0.94,-0.67
11.90343475,-17.57,-1.61,-11.53
11.97893222,-18.67,3.14,-11.06
12.0628183,-16.67,2.47,-5.92
12.1634816,-1.69,-1.84,0.31
12.23897907,0.08,1.45,-1.14
12.30608794,-4.47,-0.9,-2.47
12.38158541,-18.36,3.96,-9.41
12.4738601,-20.01,2.2,-12
12.55774618,-8.9,2.2,-4.04
12.63324365,0.63,-2.08,0.78
12.71712973,-0.24,0.16,-1.92
12.80101581,-6.35,-1.14,-8.39
12.87651328,-19.46,-5.77,-12.16
12.96878797,-20.01,5.3,-10.24
13.05267405,-4.28,0,-2.59
13.11978291,0.86,3.3,0.24
13.2120576,-4.28,-1.18,-3.22
13.28755507,-13.81,0.82,-12.4
13.37144115,-20.01,-4.04,-11.49
13.44693862,-11.34,1.1,-6.24
13.5308247,0.24,-0.43,1.22
13.61471078,-0.2,0.04,-2.28
13.69020826,-4.47,3.26,-4.28
13.76570573,-20.01,4.08,-10.2
13.84959181,-20.01,3.65,-7.88
13.93347789,-3.61,0.16,-2.59
14.03414118,-0.63,0.47,-1.53
14.11802726,-1.49,-1.41,-3.37
14.17674752,-19.93,10.67,-1.26
14.24385638,-19.18,-2.04,-11.14
14.35290829,-16.79,0.71,-7.34
14.43679437,-0.16,1.14,-1.65
14.52906906,-2.12,1.26,-0.63
14.60456653,-2.2,1.88,-4.47
14.66328678,-18.79,-4.86,-8.32
14.73878426,-20.01,4.9,-9.73
14.82267034,-10.63,0.63,-5.33
14.89816781,3.69,0.2,2.39
14.98205389,-2.75,-1.29,-5.49
15.05755136,-12.67,-2.82,-7.81
15.13304883,-20.01,3.77,-8.59
15.24210074,-17.93,4.71,-7.41
15.34276403,-0.86,-0.16,-1.22
15.4182615,-2.86,1.45,-2.04
15.48537037,-2.08,0.59,-1.26
15.57764506,-18.63,2.55,-14.95
15.66153114,-20.01,3.92,-5.41
15.73702861,-8.98,-0.16,-5.22
15.80413747,1.77,3.1,0.27
15.87963494,-1.53,-3.73,-2.47
15.94674381,-14.59,1.41,-7.77
16.0474071,-20.01,4.47,-12.51
16.13968179,-18.48,4.39,-9.22
16.65138688,-2.43,-1.18,-1.29
16.65977549,-0.47,-0.16,-1.65
16.70171853,-1.53,1.02,-1.96
16.71010714,-20.01,1.45,-4.94
16.71849574,-19.69,1.14,-8.51
16.72688435,-12.75,1.18,-6.79
16.74366157,0.16,-0.04,0.82
16.80238182,-1.1,-0.71,-2.43
16.85271347,-3.65,-2.51,-4.86
16.94498816,-19.46,5.06,-9.06
17.02048563,-20.01,4,-9.1
17.0959831,-8.24,0.67,-4.51
17.17986918,1.41,-0.39,0.27
17.25536666,-0.55,0.63,-2.82
17.33925274,-5.49,1.49,-10.67
17.41475021,-19.77,-5.02,-11.41
17.5070249,-20.01,2.51,-7.53
17.58252237,-2.71,0.47,-1.96
17.67479706,-1.37,0.47,0.47
17.75029453,-0.86,-0.2,-2.82
17.84256922,-15.73,-1.49,-13.69
17.9264553,-20.01,-0.43,-11.18
17.99356416,-14.32,3.22,-7.61
18.07745024,2.35,-3.06,-0.94
18.16133632,-0.39,0.47,-1.61
18.2452224,-4.43,2.31,-2.31
18.32910848,-20.01,0.71,-10.43
18.39621734,-20.01,4.82,-12.32
18.48849203,-5.81,-0.78,-2.98
18.5556009,1.37,2,0.08
18.64787558,-2.04,1.53,-2.63
18.74015027,-17.14,0.55,-8
18.81564774,-20.01,-1.26,-8.9
18.90792243,-15.46,2.98,-10.28
18.9834199,-2.71,0.04,-0.59
19.05891738,-1.53,1.88,2.35
19.14280346,-2.75,0.31,-3.3
19.22668954,-15.97,-0.31,-9.85
19.31057562,-20.01,0.2,-8.67
19.3944617,-12.91,1.77,-6.08
19.47834778,0.82,-1.73,-0.04
19.6125655,-0.39,0.2,-3.26
19.62934272,-8.71,-1.06,-5.33
19.7132288,-20.01,4.98,-9.26
19.77194906,-18.91,1.02,-7.92
19.86422374,-3.26,1.57,-2.47
19.94810982,-1.84,1.53,-0.9
20.0319959,-2,-0.51,-0.35
20.10749338,-20.01,3.8,-12.04
20.19137946,-20.01,6.47,-10.63
20.28365414,-12.91,0.86,-4.94
20.35915162,2.04,0.2,-1.41
20.4514263,-1.53,0.51,-3.77
20.51853517,-7.06,-2.98,-3.18
20.58564403,-20.01,5.45,-5.1
20.66953011,-20.01,4.08,-9.3
20.75341619,-1.57,-0.39,-2.39
20.85407949,-2.04,2.04,-0.2
20.93796557,-2.55,-1.06,-2.75
21.02185165,-16.51,1.61,-5.14
21.09734912,-19.38,6.9,-6.67
21.1812352,-14.51,0.98,-6.55
21.27350989,1.06,0.51,-0.75
21.34061875,-1.57,-0.47,-2.2
21.40772762,-7.26,0.24,-3.02
21.48322509,-20.01,5.26,-10.16
21.56711117,-19.46,3.22,-8.71
21.65099725,-5.14,1.41,-2.71
22.14592512,-5.61,-1.49,1.06
22.66601882,-2.08,3.14,-18.01
22.68279603,-20.01,7.45,-22.2
22.69118464,1.61,0.9,-2.08
22.74151629,-3.69,-0.75,-9.69
22.7499049,-20.01,4.16,-8.12
22.76668211,-10,1.92,-5.14
22.77507072,1.96,-2.2,2.55
22.78345933,-0.98,1.57,-3.8
22.82540237,-8.39,-1.69,-9.02
22.86734541,-20.01,3.65,-9.1
22.92606566,-20.01,0,-8.04
23.00995174,-4.35,-0.39,-0.98
23.10222643,1.84,2.55,0.04
23.18611251,-4.39,-1.92,-3.49
23.26999859,-18.71,3.77,-11.38
23.36227328,-20.01,0.67,-7.14
23.43777075,-11.73,3.02,-8.51
23.53843405,2.47,-3.14,2.98
23.62232013,-2.08,2.28,-3.65
23.71459482,-4.28,1.29,-4.12
23.78170368,-20.01,2,-9.61
23.84042394,-20.01,2.86,-7.88
23.9075328,-3.88,-0.47,-2.59
23.97464166,-0.63,1.65,2.51
24.07530496,-2.9,1.77,-3.45
24.15919104,-12.71,1.8,-13.57
24.25985434,-19.46,2.12,-10.16
24.36051763,-17.5,-0.47,-7.45
24.41923789,0.12,1.65,-0.94
24.49473536,-5.1,0.27,0.35
24.58701005,-2.2,2.16,-1.53
24.6373417,-18.24,-0.63,-13.14
24.72122778,-20.01,4.82,-11.26
24.81350246,-10.36,0.24,-5.53
24.91416576,4.08,0.24,0.08
24.98127462,-3.57,-1.29,-3.22
25.03999488,-5.92,-0.12,-7.02
25.12388096,-20.01,5.92,-9.65
25.21615565,-18.4,1.26,-8.75
25.31681894,-3.3,-0.39,-0.94
25.3755392,-2.98,1.65,1.65
25.45103667,-4.39,3.96,-7.61
25.54331136,-15.53,-5.1,-8.67
25.64397466,-19.46,3.41,-10.67
25.72786074,-12.28,0.16,-5.92
25.80335821,3.69,0.98,0.78
25.85368986,-2.31,-0.16,-3.69
25.92079872,-4.55,-5.41,-6.35
26.0046848,-20.01,4.08,-10.16
26.09695949,-19.42,3.65,-10.36
26.18923418,-2.82,2,-0.43
26.28989747,-4.16,0.86,0.86
26.35700634,-0.9,0.2,-2.75
26.43250381,-13.18,-1.92,-12.4
26.5247785,-19.1,-2.2,-8.32
26.60866458,-16.12,3.1,-5.92
26.68416205,-1.02,-1.18,-1.84
26.7428823,-1.02,1.26,-2.39
26.8435456,-3.14,-1.18,-4.51
26.93582029,-20.01,6.94,-8.79
26.99454054,-20.01,5.41,-9.41
27.07842662,-5.88,0.43,-2.43
27.17070131,-6.04,0.35,0.94
27.25458739,-1.65,1.22,-2.2
27.34686208,-11.18,-5.14,-4.31
27.42235955,-20.01,7.92,-7.69
27.48946842,-16.91,1.02,-7.22
27.5817431,1.57,1.88,-2.67
27.6824064,-1.57,-2.75,-2.79
28.16055706,-2.16,-1.57,-2.86
28.22766592,-16.75,10.83,-9.49
28.24444314,-20.01,0.78,-11.02
28.26960896,-6.35,0.98,-4.24
28.31994061,-8.39,3.49,-12.47
28.33671782,-19.18,3.53,-12.75
28.37866086,-20.01,1.65,-7.73
28.44576973,-2.9,0.39,-0.94
28.52965581,-1.22,0.82,1.61
28.6219305,-3.41,-0.43,-2.43
28.72259379,-14,5.96,-12.36
28.79809126,-20.01,-0.04,-9.89
28.86520013,-12.94,1.92,-8.2
28.9406976,2.31,-0.67,0.24
29.0413609,-1.96,1.57,-0.94
29.11685837,-1.92,2.63,-2.59
29.17557862,-19.5,-2,-12
29.2510761,-20.01,5.77,-10.59
29.33496218,-6.71,-1.14,-3.57
29.44401408,1.06,4.63,1.8
29.54467738,-2.82,0.39,-1.84
29.61178624,-15.85,5.92,-7.53
29.68728371,-20.01,-5.02,-9.61
29.78794701,-15.61,0.78,-8.87
29.8886103,1.45,0.43,0.86
29.95571917,-1.29,3.73,-1.37
29.99766221,0.51,-0.27,-3.84
30.08154829,-20.01,-3.3,-11.61
30.15704576,-20.01,3.26,-10.47
30.24932045,-10.24,-0.51,-5.1
30.33320653,5.26,-0.04,-0.08
30.43386982,-4.75,-3.41,-2.94
30.5093673,-8.55,-0.63,-6.83
30.57647616,-20.01,1.53,-12.2
30.65197363,-20.01,2.86,-11.18
30.73585971,-3.69,-0.08,-2.31
30.81974579,-3.92,0.75,3.06
30.92040909,-1.88,0.51,-1.1
31.00429517,-10.9,-2.16,-11.77
31.04623821,-20.01,7.53,-10.94
31.13012429,-19.06,0.27,-7.88
31.22239898,5.1,2.63,-0.82
31.32306227,-4.24,-2.2,-2.79
31.39017114,-0.9,0.16,-1.69
31.48244582,-16.83,6.98,-13.45
31.54955469,-20.01,0.55,-12.87
31.62505216,-8.94,1.69,-4.86
31.72571546,0.67,-4.67,1.37
31.80121293,-0.78,5.26,-5.41
31.83476736,-8.71,0.55,-9.61
31.91026483,-20.01,4.2,-9.85
31.99415091,-18.08,3.45,-8.51
32.09481421,-3.57,-2.47,-0.55
32.1954775,-1.73,4.24,-0.27
32.28775219,-1.02,-0.67,-0.98
32.37163827,-19.89,6.08,-17.34
32.41358131,-20.01,0.16,-7.1
32.48069018,-13.1,1.53,-7.45
32.54779904,2.04,-0.78,2.67
32.65685094,0.31,3.92,-2.39
32.77429146,-1.84,-1.1,-3.22
32.84978893,-20.01,0.63,-16.4
32.9252864,-20.01,6.2,-9.1
33.00078387,-8.32,-1.57,-4.79
33.08466995,3.77,4.98,-1.84
33.17694464,-1.8,-3.26,-1.18
33.6634839,-10.24,-1.02,-11.34
33.68026112,-20.01,5.61,-9.3
33.69703834,-20.01,3.77,-11.57
33.72220416,-1.69,4.12,0.67
33.78931302,-2.2,0.31,1.45
33.79770163,-12.4,0.55,-12.59
33.8648105,-20.01,-0.47,-12.4
33.90675354,-15.53,2.31,-7.92
33.9738624,-0.9,-0.59,1.02
34.04935987,-1.14,2.94,0.35
34.13324595,-2.31,1.61,-3.1
34.19196621,-17.97,0.67,-12.87
34.27585229,-18.67,-2.79,-12.63
34.34296115,-12.47,0.51,-7.65
34.41007002,1.96,-1.88,-0.12
34.5023447,0.08,1.33,-0.67
34.603008,-0.39,0.04,-4.2
34.69528269,-20.01,1.26,-12.16
34.80433459,-20.01,4.16,-9.34
34.89660928,-5.26,1.1,-4.51
34.94694093,1.26,2.39,0.94
35.0224384,-3.84,-0.51,-0.75
35.1231017,-14.75,1.33,-7.34
35.19859917,-20.01,-0.75,-12.47
35.24893082,-18.04,1.69,-10.28
35.32442829,-2.67,1.26,0.24
35.41670298,-0.82,-0.71,-0.51
35.52575488,-1.88,1.33,-1.26
35.63480678,-14.04,-2.9,-10.71
35.71030426,-18.24,-0.27,-11.77
35.77741312,-15.06,2.51,-7.61
35.82774477,0.51,-3.26,-0.16
35.89485363,0.55,4.35,-2.9
35.9703511,-2.63,-1.53,-2.94
36.0710144,-20.01,3.06,-13.49
36.1716777,-20.01,0.78,-10.98
36.2807296,-9.49,-1.14,-5.41
36.35622707,2.08,0.63,1.57
36.41494733,-2.2,-0.51,-0.94
36.48205619,-2.12,3.57,-6.47
36.5911081,-20.01,0.82,-9.65
36.66660557,-20.01,2.35,-8.59
36.71693722,-5.77,0.16,-2.35
36.78404608,0.71,-0.08,-0.12
36.85954355,-0.82,1.45,-1.61
36.94342963,-16.59,-0.08,-13.22
37.04409293,-20.01,2.63,-8.87
37.14475622,-16.04,0.51,-8.67
37.24541952,-1.33,0.04,-0.51
37.32091699,1.02,0.12,-0.78
37.37124864,-3.22,1.8,-3.26
37.4383575,-20.01,-1.92,-6.47
37.51385498,-20.01,2.16,-7.81
37.60612966,-11.53,0.51,-5.3
37.69840435,0.78,-0.43,0.82
37.80745626,0.86,0.59,-3.26
37.88295373,-7.1,-1.06,-7.53
37.96683981,-20.01,8.08,-10.67
38.07589171,-20.01,1.06,-10.28
38.15138918,-5.92,1.06,-4.24
38.19333222,0.55,2.35,-0.35
38.2688297,0.2,-0.63,-3.22
38.36949299,-6.79,-1.88,-9.1
38.43660186,-20.01,5.49,-10.24
38.52048794,-20.01,-0.24,-7.26
38.61276262,-5.02,1.57,-1.92
38.67987149,1.96,2.08,-1.29
39.14963354,-4,1.69,-3.06
39.2167424,-20.01,-1.41,-15.14
39.24190822,-19.02,-4.51,-12
39.25868544,-13.85,1.73,-7.26
39.27546266,0.82,-0.12,0.82
39.29223987,-1.26,0.43,-2.28
39.35096013,-1.96,2.16,-2.43
39.35934874,-20.01,-0.12,-6.28
39.39290317,-20.01,-2.71,-8.12
39.45162342,-5.77,3.1,-5.49
39.5355095,3.18,0.55,0.24
39.62778419,-2.82,-1.57,-1.61
39.72005888,-10.2,-0.35,-4.59
39.82911078,-20.01,2.24,-11.53
39.93816269,-20.01,1.57,-10.2
40.02204877,-1.88,1.53,-1.33
40.08076902,-4.94,2.94,1.45
40.13110067,-2.59,-1.1,-0.67
40.19820954,-15.1,-1.29,-10.2
40.29048422,-20.01,3.45,-12.75
40.38275891,-17.81,1.29,-8.98
40.48342221,-0.94,0.08,-0.43
40.55891968,-1.8,0.2,0.27
40.60925133,-1.65,-0.43,-2.43
40.6847488,-17.22,6.83,-7.88
40.77702349,-20.01,0.98,-10.32
40.87768678,-10.94,0,-6.98
40.96157286,2.35,-1.8,-0.35
41.03707034,-0.16,3.14,-1.22
41.14612224,-2.86,2.04,-2.71
41.22161971,-20.01,-0.86,-5.61
41.28033997,-20.01,2.79,-7.37
41.33906022,-10.94,2.59,-5.18
41.38939187,4.31,0.27,-1.22
41.47327795,-1.77,-0.59,-1.14
41.56555264,-6.55,-1.84,-2.71
41.68299315,-20.01,5.22,-10.63
41.75849062,-20.01,3.69,-9.49
41.81721088,-7.41,0.55,-4.39
41.89270835,-1.53,-0.04,0.9
41.97659443,-0.94,2.51,-2.31
42.07725773,-5.81,-0.9,-10.83
42.17792102,-20.01,3.41,-8.55
42.2534185,-20.01,2.24,-8.2
42.34569318,-1.84,0.63,-2.79
42.41280205,-0.04,-0.47,-1.49
42.49668813,-0.55,0.71,-2.04
42.59735142,-20.01,5.02,-9.89
42.6728489,-20.01,4.47,-8.63
42.73995776,-11.85,0.67,-7.37
42.79028941,2.59,-3.18,0
42.86578688,-1.29,3.41,-2
42.97483878,0.63,2,-3.65
43.08389069,-20.01,2.67,-9.65
43.15938816,-20.01,2.71,-9.02
43.21810842,-8.9,1.18,-5.06
43.29360589,4.55,0.67,-0.51
43.39426918,-2.55,-0.98,-2.04
43.46976666,-7.45,-1.45,-5.84
43.55365274,-20.01,1.96,-11.61
43.63753882,-20.01,1.84,-9.22
43.70464768,-6.63,2.43,-1.8
43.78014515,-3.14,-1.29,0.43
43.86403123,-1.73,3.61,-2.04
43.9395287,-11.77,-1.61,-14.87
44.040192,-20.01,4.16,-8.87
44.11568947,-20.01,1.29,-7.3
44.19118694,-2.59,-0.43,-1.26
44.65256038,-0.31,1.53,0.43
44.72805786,-1.69,0.9,-1.37
44.74483507,-16.16,2.2,-10.12
44.76161229,-20.01,-4.35,-8.83
44.7783895,-14.47,1.41,-7.14
44.78677811,-2.9,1.26,1.45
44.84549837,-1.33,1.14,-1.61
44.85388698,-3.77,1.49,-3.49
44.92938445,-18.67,-1.26,-12.32
44.99649331,-20.01,3.26,-10.79
45.07199078,-8.83,0.39,-5.45
45.14748826,4.28,5.14,-1.26
45.23976294,-1.41,-1.29,-2.04
45.32364902,-12.43,-1.49,-8.2
45.42431232,-20.01,4.55,-10.63
45.49142118,-19.53,4.51,-9.85
45.56691866,-3.69,-0.43,-0.67
45.65919334,-3.26,-0.24,1.14
45.72630221,0.24,2.24,-2.63
45.81018829,-18.4,-1.53,-10.36
45.90246298,-20.01,4.71,-11.02
45.97796045,-12.87,-1.33,-5.22
46.07023514,1.41,1.61,-0.55
46.12895539,0.27,-1.65,-0.86
46.21284147,-5.3,0.31,-3.49
46.29672755,-20.01,3.3,-11.06
46.39739085,-20.01,0.75,-8.32
46.4561111,-3.45,0.12,-3.49
46.53160858,-2.04,1.14,0.9
46.60710605,-1.88,0.2,-1.02
46.67421491,-9.38,2.2,-13.49
46.75810099,-20.01,-1.26,-10.04
46.85876429,-20.01,-0.16,-7.69
46.95103898,-2.82,-0.35,-0.67
47.06847949,-0.2,2,0.67
47.16075418,-1.22,1.92,-2.75
47.21947443,-14.75,0.59,-13.65
47.26980608,-20.01,-1.14,-9.57
47.32013773,-16.08,1.8,-8.63
47.41241242,1.57,0.24,1.14
47.52146432,-2.47,2.47,-1.84
47.58857318,-0.67,0,-3.18
47.67245926,-20.01,-0.71,-8.47
47.76473395,-20.01,3.53,-9.38
47.84862003,-11.85,2.82,-3.49
47.93250611,4.08,-1.41,0
48.01639219,-1.41,-2.28,-5.22
48.09188966,-9.1,-1.06,-4.67
48.14222131,-19.53,0.27,-7.1
48.21771878,-20.01,3.33,-10.16
48.30160486,-8.08,3.1,-2.08
48.39387955,0.55,-1.77,1.57
48.51132006,0.16,3.57,0.98
48.59520614,-14.04,-3.77,-10.59
48.64553779,-20.01,-0.86,-8.2
48.72942387,-20.01,-5.06,-7.3
48.80492134,-4.08,-0.24,-0.08
48.89719603,-0.86,2.12,0.24
48.9643049,-2.39,1.73,-2.04
49.03141376,-17.89,1.61,-17.53
49.09013402,-20.01,0.04,-8.79
49.1740201,-15.22,1.02,-7.02
49.26629478,2.94,-0.12,0.75
49.36695808,-2.79,1.96,-1.49
49.48439859,1.06,1.37,-4.71
49.55989606,-20.01,-3.77,-10.67
49.61861632,-20.01,2.55,-7.92
49.68572518,-12.4,-1.18,-5.88
50.15548723,4.79,1.45,-0.82
50.17226445,-3.1,-3.18,-2.2
50.18904166,-6.79,-1.61,-9.92
50.27292774,-20.01,2.31,-7.22
50.28970496,-20.01,3.61,-12.28
50.30648218,-6.32,-1.8,-3.8
50.36520243,-0.24,0.24,1.1
50.37359104,-1.53,2.08,-2.28
50.4323113,-8.59,2.98,-8.43
50.50780877,-20.01,2.43,-11.38
50.59169485,-20.01,0,-8.75
50.68396954,-3.73,0.98,-2.47
50.7510784,-1.61,-0.27,1.61
50.80979866,-2.55,2.63,-1.26
50.88529613,-15.02,3.02,-12.04
51.00273664,-20.01,-4.35,-9.96
51.11178854,-15.1,1.61,-8.79
51.18728602,3.18,0.43,1.84
51.23761766,-1.18,2.2,-1.84
51.32150374,-1.49,0.9,-3.41
51.39700122,-19.69,2.24,-11.1
51.4808873,-20.01,2.71,-11.85
51.56477338,-10.47,0.63,-5.77
51.64865946,4.55,0.59,0.47
51.71576832,-2.98,1.14,-1.69
51.78287718,-10.43,-4.2,-12.28
51.84998605,-20.01,-0.71,-15.26
51.91709491,-18.91,3.92,-11.34
52.00098099,-5.02,-0.27,0.39
52.08486707,-2.82,1.45,0.47
52.19391898,-2.9,1.29,-2.31
52.27780506,-14.63,-0.86,-9.22
52.37007974,-19.69,3.73,-8.71
52.46235443,-18.2,0.08,-7.77
52.5378519,1.22,0.27,-0.63
52.61334938,-1.45,-1.41,0.47
52.71401267,-1.41,-1.73,-4.86
52.79789875,-17.53,5.1,-2.71
52.8482304,-20.01,3.37,-8.87
52.93211648,-11.06,0.43,-5.77
53.01600256,2.63,-2.55,1.41
53.10827725,-0.27,6.16,-1.92
53.17538611,-2.51,-0.16,-6.86
53.25088358,-20.01,1.29,-12.71
53.32638106,-20.01,2.04,-10.59
53.41026714,-4.51,-0.04,-2.39
53.49415322,-1.37,-0.86,3.61
53.5864279,-3.8,3.49,-1.22
53.67870259,-19.61,-6.79,1.53
53.76258867,-20.01,-0.47,-10.08
53.81292032,-18.79,2.28,-10.67
53.8968064,-2.94,1.49,0.47
53.97230387,-4.2,-0.55,1.1
54.06457856,-1.73,1.77,-2.04
54.16524186,-12.75,-2.04,-10.28
54.23235072,-19.93,4.04,-10.59
54.3162368,-16.48,1.26,-7.45
54.37495706,-1.37,-0.75,0.94
54.46723174,-1.65,1.69,-0.35
54.55950643,-4.43,-0.24,-2.94
54.64339251,-15.02,0.27,-11.69
54.7356672,-20.01,2.39,-10.47
54.80277606,-10.63,-0.82,-4.71
54.87827354,2.98,-0.55,-1.84
54.96215962,-1.41,7.45,-0.63
55.03765709,-4.31,1.49,-5.02
55.11315456,-15.57,-9.45,-7.81
55.18865203,-20.01,1.92,-10
56.14495334,-8.55,-0.78,-4.51
56.64826982,4.08,3.22,0.31
57.16836352,-3.1,-4.67,-2.67
57.17675213,-10.36,1.14,-7.41
57.19352934,-20.01,0.75,-10.87
57.20191795,-19.1,5.77,-12.12
57.26902682,-6.55,-0.43,-4.63
57.27741542,-0.39,0.71,-0.59
57.28580403,-9.73,-0.16,-13.38
57.29419264,-20.01,6.98,-9.26
57.30258125,-16.71,-1.65,-8.43
57.31096986,0.59,2.51,0.9
57.31935846,-1.77,-3.53,-2.08
57.33613568,-1.29,-2.9,-23.38
57.34452429,4.35,2.35,-0.59
57.39485594,-2.82,0.24,-2.47
57.40324454,-5.06,-0.94,-5.92
57.4619648,-20.01,2.94,-9.73
57.53746227,-20.01,4,-12.16
57.62973696,-9.18,-0.16,-4.39
57.70523443,-2.47,0.08,2.79
57.78912051,-2.04,4.79,-3.1
57.84784077,-10,-4.16,-8.12
57.91494963,-19.69,7.65,-9.06
57.99883571,-18.16,-0.94,-9.14
58.10788762,-7.69,2.04,-0.43
58.20855091,1.92,1.02,1.45
58.28404838,-2.28,0.24,-2.67
58.36793446,-16.04,3.22,-16.36
58.46020915,-20.01,-2.16,-8.55
58.53570662,-15.49,1.26,-8.36
58.58603827,-0.16,1.69,-0.16
58.66992435,-3.1,-1.14,0.78
58.75381043,-0.51,2.43,-3.57
58.85447373,-19.81,-7.77,-5.26
58.93835981,-20.01,6.51,-11.45
59.00546867,-14.91,0.9,-7.85
59.07257754,1.49,-0.82,0.59
59.1396864,-2.39,-0.16,-2.75
59.21518387,-2.59,-2.39,-1.8
59.31584717,-19.38,3.22,-7.92
59.42489907,-20.01,1.65,-10.32
59.49200794,-15.34,-0.24,-6.16
59.56750541,3.57,0.12,-0.55
59.6597801,-0.82,4.75,-0.47
59.76044339,-2.55,0.71,-3.69
59.81077504,-18.87,-0.75,-11.14
59.88627251,-20.01,1.84,-10.87
59.96176998,-11.89,2.31,-6.12
60.03726746,3.57,1.45,0.24
60.12115354,-1.92,-0.82,-2.24
60.21342822,-4.28,-2.75,-5.53
60.31409152,-18.91,4.9,-8.2
60.3979776,-20.01,-2.24,-11.45
60.48186368,-13.65,-0.78,-5.26
60.57413837,3.02,2.94,2.04
60.63285862,-1.8,1.57,-1.8
60.72513331,-2.08,-0.2,-6.16
60.78385357,-20.01,1.61,-9.73
60.86773965,-20.01,6.04,-10.12
60.94323712,-11.06,0.16,-7.34
61.01034598,0.71,0.04,1.49
61.07745485,-3.41,-0.08,-0.16
61.16134093,-5.92,-1.41,-4.75
61.27878144,-18.28,7.34,-9.02
61.38783334,-20.01,0.51,-9.18
61.47171942,-14.12,1.1,-7.1
61.53043968,-2.04,0.24,-0.08
61.59754854,-0.67,1.45,-0.47
61.6562688,-20.01,7.3,-5.49
61.71498906,-8.51,5.22,-8.51
61.80726374,-13.42,-1.73,-7.26
61.88276122,-10.12,-0.35,-3.57
61.9666473,-8.47,2.55,-3.77
62.0756992,-10.94,0.27,-3.61
62.1763625,-9.69,1.18,-5.06
