"NAME:","run_3_1"
"EXPERIMENT TIME:","Thu Jun 01 21:48:08 GMT+03:00 2023"
"ACTIVITY TYPE:","Running"
"COUNTS OF ACTUAL STEPS:","115"
"  "," "
"Time [sec]","ACC X","ACC Y","ACC Z"
"0","-10.16","1.41","-5.49"
"0.058720256000000005","-10.47","1.14","-4.55"
"0.142606336","-10.98","2.24","-6.24"
"0.218103808","-10.16","2.86","-7.06"
"0.29360128","-7.26","1.29","-5.61"
"0.385875968","-3.41","-1.53","-4.47"
"0.44459622400000004","-11.06","5.02","-5.30"
"0.536870912","-20.01","-0.20","-4.98"
"0.612368384","-14.67","-0.75","-7.06"
"0.696254464","-5.14","0.90","-3.02"
"0.7801405440000001","1.26","-2.47","-0.24"
"0.855638016","-3.37","0.86","-5.77"
"0.956301312","-19.93","3.80","-4.55"
"1.031798784","-17.06","3.33","-9.10"
"1.1072962560000001","-7.73","1.77","-6.51"
"1.191182336","1.49","0.75","1.77"
"1.291845632","0.04","1.53","-2.75"
"1.3673431040000001","-16.63","2.47","-6.83"
"1.434451968","-20.01","2.47","-7.96"
"1.5099494400000002","-17.14","0.55","-5.96"
"1.59383552","-2.24","0.71","-2.63"
"1.6777216000000001","0.90","0.75","-0.71"
"1.76160768","-0.59","-0.31","-3.41"
"1.8371051520000001","-17.42","5.77","-6.43"
"1.9209912320000002","-20.01","-0.12","-8.59"
"1.9881000960000001","-8.98","2.71","-5.73"
"2.0719861760000002","0.51","-0.39","-0.24"
"2.164260864","0.39","2.08","-2.24"
"2.231369728","-13.81","2.20","-5.14"
"2.3152558080000003","-20.01","4.31","-3.37"
"2.399141888","-18.91","1.88","-4.90"
"2.4746393600000003","-2.16","-0.35","-2.47"
"2.566914048","0.51","0.16","-1.29"
"2.650800128","-0.47","0.94","-3.14"
"2.7262976","-20.01","3.14","-10.16"
"2.81018368","-20.01","2.35","-8.32"
"2.885681152","-10.83","1.80","-5.18"
"2.961178624","2.00","-0.27","-0.08"
"3.045064704","1.06","0.51","-0.90"
"3.128950784","-6.79","1.92","-6.08"
"3.204448256","-20.01","-0.98","-6.24"
"3.2799457280000004","-20.01","0.20","-5.61"
"3.372220416","-5.18","0.12","-2.43"
"3.4561064960000003","1.06","-0.24","-0.31"
"3.531603968","-1.37","-0.59","-3.02"
"3.60710144","-20.01","5.49","-7.22"
"3.69098752","-20.01","0.59","-7.49"
"3.766484992","-9.65","2.04","-6.35"
"3.850371072","1.45","-1.73","-0.16"
"3.9342571520000003","-1.33","2.51","-2.12"
"4.018143232","-5.53","2.16","-3.37"
"4.538236928","-20.01","5.10","-3.41"
"4.571791360000001","-19.93","3.57","-5.84"
"4.588568576","-5.10","0.35","-1.92"
"4.6053457920000005","0.51","-0.71","-1.41"
"4.630511616000001","0.12","-0.75","-2.35"
"4.672454656","-20.01","0.71","-13.65"
"4.689231872000001","-20.01","4.94","-8.79"
"4.731174912","-12.43","2.59","-7.65"
"4.773117952000001","1.02","-0.43","0.67"
"4.840226816","0.75","1.69","-2.35"
"4.898947072","-1.73","2.12","-1.84"
"4.982833152","-20.01","2.20","-10.43"
"5.0667192320000005","-20.01","4.08","-5.65"
"5.150605312000001","-9.41","0.63","-6.28"
"5.234491392000001","2.98","0.55","0.43"
"5.335154688","-2.08","-2.31","-1.49"
"5.402263552","-13.85","-0.75","-3.77"
"5.477761024","-20.01","6.35","-7.41"
"5.553258496000001","-17.22","3.10","-9.02"
"5.637144576000001","-0.31","-1.84","0.12"
"5.721030656","0.08","1.06","-2.28"
"5.796528128","-2.39","2.51","0.43"
"5.880414208","-20.01","-2.55","-9.57"
"5.955911680000001","-20.01","6.43","-8.08"
"6.056574976","-9.69","-0.63","-7.49"
"6.132072448000001","2.31","3.88","1.26"
"6.20756992","-1.92","-1.37","-1.18"
"6.283067392","-10.32","-1.69","-6.47"
"6.37534208","-20.01","7.73","-7.77"
"6.45922816","-19.50","3.80","-9.10"
"6.534725632000001","-2.08","-1.02","-2.28"
"6.610223104","-2.12","1.73","0.43"
"6.694109184","-1.96","1.22","-2.75"
"6.7696066560000006","-17.18","-2.20","-8.90"
"6.845104128","-17.85","5.77","-6.04"
"6.954156032","-12.47","-1.18","-6.67"
"7.038042112","1.61","4.12","1.80"
"7.113539584000001","-2.51","-1.22","-0.86"
"7.189037056","-13.61","0.86","-2.43"
"7.264534528","-19.97","5.02","-7.85"
"7.356809216","-20.01","3.80","-11.18"
"7.432306688000001","-4.51","-2.20","-1.33"
"7.50780416","-3.57","0.47","0.35"
"7.59169024","0.59","1.33","-2.55"
"7.6671877120000005","-16.04","-0.90","-11.73"
"7.742685184000001","-18.95","0.20","-5.84"
"7.818182656","-19.02","1.69","-7.26"
"7.902068736","-2.04","-0.75","-2.51"
"7.9859548160000005","-0.20","2.35","-0.27"
"8.069840896","-2.55","-1.73","-2.71"
"8.153726976","-16.67","7.18","-6.24"
"8.229224448","-20.01","0.67","-6.98"
"8.313110528000001","-12.94","2.28","-6.79"
"8.396996608","-1.22","-2.12","1.65"
"8.464105472","-1.37","0.04","-0.82"
"8.547991552000001","-0.82","2.59","-4.39"
"8.648654848000001","-20.01","-2.39","-9.81"
"8.715763712000001","-20.01","2.67","-6.98"
"8.816427008","-10.43","-0.39","-5.61"
"8.908701696000001","1.96","0.78","1.96"
"8.984199168","-0.59","-0.04","-2.47"
"9.034530816","-14.32","-2.86","-4.71"
"9.118416896000001","-20.01","4.79","-7.81"
"9.210691584000001","-17.02","3.77","-7.49"
"9.286189056000001","-1.29","-0.08","-0.12"
"9.370075136","-0.90","0.08","0.31"
"9.445572608","-2.00","-1.33","-2.79"
"9.529458688","-20.01","4.00","-7.77"
"10.032775168","-20.01","2.59","-6.86"
"10.536091648000001","-12.20","1.41","-5.96"
"10.578034688","1.80","1.80","1.10"
"10.586423296000001","-0.20","-1.84","-2.12"
"10.603200512","-6.28","-1.37","-7.88"
"10.611589120000001","-20.01","5.73","-10.75"
"10.619977728","-20.01","5.92","-8.20"
"10.628366336000001","-3.41","-0.16","-3.53"
"10.645143552","1.29","1.45","-1.49"
"10.653532160000001","0.12","-1.65","-3.30"
"10.670309376","-14.47","0.24","-7.14"
"10.678697984000001","-20.01","-0.27","-7.22"
"10.712252416","-18.79","2.08","-5.37"
"10.720641024","0.24","2.86","-1.73"
"10.762584064","3.57","3.14","-2.16"
"10.821304320000001","-2.20","-2.59","-5.88"
"10.896801792000002","-12.04","3.61","-8.04"
"10.989076480000001","-17.73","3.37","-4.75"
"11.07296256","-14.47","7.06","-5.37"
"11.140071424","-3.65","1.29","-3.18"
"11.215568896","0.55","1.26","-2.47"
"11.299454976","-1.69","0.55","-4.59"
"11.383341056","-20.01","-2.08","-4.71"
"11.484004352000001","-20.01","-3.65","-2.63"
"11.567890432","-5.41","-0.12","-3.26"
"11.651776512000001","-1.41","0.82","0.00"
"11.718885376000001","1.84","1.18","-5.69"
"11.78599424","-20.01","5.22","-3.53"
"11.86988032","-20.01","-1.77","-5.53"
"11.962155008","-11.06","1.88","-2.04"
"12.029263872000001","-1.22","1.84","-0.35"
"12.113149952","-1.22","0.51","-2.08"
"12.197036032000002","-5.41","2.59","-9.92"
"12.280922112","-20.01","0.47","-7.57"
"12.364808192","-20.01","-0.55","-3.06"
"12.448694272000001","-1.29","0.27","-1.57"
"12.515803136","-0.39","0.51","-2.08"
"12.599689216000002","-0.75","0.16","-6.86"
"12.675186688","-15.73","4.51","-10.16"
"12.759072768000001","-20.01","-0.31","-4.43"
"12.859736064000002","-12.51","2.71","-7.41"
"12.935233536","-3.02","2.86","-0.86"
"13.019119616000001","1.45","-0.12","-2.63"
"13.08622848","-7.96","3.41","-10.24"
"13.186891776000001","-19.10","-2.98","-8.59"
"13.262389248000002","-19.93","-1.92","-3.22"
"13.33788672","-2.94","-0.67","-4.35"
"13.413384192","1.45","0.35","-0.51"
"13.497270272000002","-4.04","-0.43","-11.34"
"13.572767744","-19.34","8.16","-11.30"
"13.665042432000002","-16.12","2.63","-16.36"
"13.748928512","-10.16","-4.51","-7.77"
"13.816037376","2.79","6.98","-1.77"
"13.899923456000002","-0.20","0.98","-2.55"
"13.992198144000001","-9.41","2.31","-8.04"
"14.076084224","-20.01","-5.10","-4.28"
"14.143193088","-20.01","-5.30","-5.69"
"14.235467776","-11.57","-4.24","-4.16"
"14.319353856000001","-0.20","-2.98","-3.26"
"14.394851328000001","-0.39","-0.59","-1.18"
"14.478737408","-6.51","-1.29","-8.43"
"14.562623488000002","-20.01","11.69","-10.94"
"14.680064000000002","-20.01","8.16","-6.79"
"14.738784256","-7.30","1.29","-2.71"
"14.814281728000001","-0.94","1.41","-1.84"
"14.898167808","0.08","-3.84","-2.12"
"14.965276672000002","-20.01","2.82","-8.79"
"15.049162752","-17.73","4.20","-8.59"
"15.124660224000001","-15.53","-0.94","-3.49"
"15.200157696000002","-1.26","-2.04","-0.43"
"15.275655168","-1.10","-0.31","-1.61"
"15.359541248000001","-4.43","-5.69","-13.22"
"15.435038720000001","-20.01","5.30","-9.26"
"15.510536192000002","-20.01","5.10","-7.49"
"16.039018496","-4.63","-1.14","-2.31"
"16.089350144","-0.67","1.92","-4.43"
"16.106127360000002","1.33","-1.80","-4.82"
"16.122904576","-20.01","-2.55","-8.55"
"16.139681792","-20.01","1.84","-6.71"
"16.1480704","-13.77","0.24","-3.57"
"16.19001344","-2.20","-1.37","0.00"
"16.23195648","-2.75","-0.08","-1.53"
"16.265510912","-5.49","-2.59","-9.02"
"16.332619776","-17.89","1.77","-9.18"
"16.424894464","-20.01","2.04","-9.14"
"16.584278016000003","-10.20","1.84","-2.00"
"16.60944384","-1.10","3.14","0.04"
"16.69332992","-0.51","-0.04","-3.61"
"16.768827392000002","-11.41","-0.12","-11.92"
"16.844324864","-20.01","2.00","-8.90"
"16.911433728000002","-18.95","0.75","-5.57"
"17.02887424","-1.65","0.08","-2.31"
"17.095983104000002","-0.98","1.18","0.39"
"17.171480576","-2.86","-1.69","-6.39"
"17.255366656","-18.28","6.86","-12.63"
"17.330864128","-20.01","-1.49","-9.57"
"17.414750208","-12.98","-0.75","-6.43"
"17.481859072000002","2.55","0.12","0.67"
"17.599299584","-2.67","-0.39","-2.20"
"17.691574272","-3.73","1.22","-5.77"
"17.750294528","-19.18","-2.12","-9.96"
"17.809014784000002","-20.01","2.67","-8.94"
"17.926455296","-11.73","-2.00","-5.37"
"17.943232512","3.18","4.20","-0.47"
"18.069061632","-2.24","-0.63","-0.27"
"18.144559104000002","-10.87","-2.31","-8.83"
"18.220056576","-18.79","2.71","-10.20"
"18.303942656","-20.01","1.18","-12.04"
"18.379440128000002","-6.55","0.67","-4.63"
"18.471714816000002","-1.14","-0.27","0.75"
"18.563989504000002","-1.53","1.88","-1.77"
"18.647875584","-6.55","0.94","-14.44"
"18.706595840000002","-20.01","2.20","-11.10"
"18.773704704","-20.01","1.41","-9.85"
"18.865979392","-3.92","0.67","-1.57"
"18.95825408","0.20","1.33","1.57"
"19.025362944","-3.22","-0.78","1.29"
"19.109249024","-16.16","1.57","-6.24"
"19.193135104","-20.01","-3.65","-9.73"
"19.277021184000002","-17.46","0.90","-10.51"
"19.369295872000002","-2.55","2.31","-1.06"
"19.453181952","-3.33","-0.20","1.77"
"19.58739968","-2.59","1.33","-0.20"
"19.620954112","-14.55","-0.24","-12.47"
"19.688062976","-17.22","0.90","-9.89"
"19.763560448","-14.87","0.67","-9.57"
"19.847446528000003","2.20","2.20","0.20"
"19.939721216000002","-1.53","-0.59","-0.75"
"20.023607296","-2.16","-5.33","-4.51"
"20.082327552000002","-16.32","6.51","-10.98"
"20.157825024","-20.01","2.35","-11.53"
"20.241711104","-7.92","2.20","-8.39"
"20.325597184000003","0.16","-3.49","1.10"
"20.409483264000002","-1.77","4.35","-0.63"
"20.501757952000002","-2.86","0.39","-4.67"
"20.594032640000002","-20.01","-1.96","-6.39"
"20.67791872","-20.01","0.75","-10.16"
"20.736638976000002","-10.12","1.80","-7.41"
"20.80374784","2.47","-1.06","1.84"
"20.896022528","-1.29","1.80","-0.75"
"20.988297216000003","-3.65","-6.55","-7.34"
"21.072183296000002","-20.01","7.53","-11.49"
"21.550333952000003","-20.01","-0.94","-9.38"
"22.036873216","-3.30","-0.71","-7.73"
"22.053650432","-0.98","0.12","1.84"
"22.10398208","-2.00","1.10","-0.82-2.39"
"22.120759296000003","-20.01","0.63","-11.18"
"22.137536512","-20.01","3.88","-10.28"
"22.14592512","-4.28","-0.82","-3.37"
"22.154313728","-0.39","0.24","2.71"
"22.171090944000003","-4.08","1.80","-1.10"
"22.179479552","-14.08","-0.27","-8.00"
"22.18786816","-20.01","-1.65","-9.65"
"22.204645376000002","-17.38","1.65","-10.59"
"22.246588416","-1.73","-0.78","0.55"
"22.288531456","-3.22","0.75","2.04"
"22.347251712000002","-0.86","2.75","-2.63"
"22.422749184","-20.01","-1.22","-9.73"
"22.52341248","-20.01","2.82","-12.28"
"22.60729856","-16.28","-0.43","-8.39"
"22.682796032000002","1.57","1.65","0.43"
"22.766682112","-0.98","-0.71","-0.20"
"22.842179584","-2.47","-1.84","-1.96"
"22.909288448","-16.87","4.12","-20.01"
"22.98478592","-20.01","-1.14","-13.06"
"23.068672000000003","-11.18","-0.82","-9.89"
"23.144169472","0.04","-0.35","3.45"
"23.23644416","-2.43","3.92","-0.94"
"23.328718848","-1.29","0.90","-1.10"
"23.420993536","-20.01","2.90","-5.69"
"23.496491008000003","-19.89","2.79","-12.04"
"23.563599872","-12.94","3.30","-7.14"
"23.65587456","3.14","-0.43","0.75"
"23.731372032000003","-0.71","-0.27","-2.00"
"23.815258112000002","-2.79","-1.06","-4.71"
"23.899144192","-14.67","3.18","-15.93"
"23.983030272","-20.01","-2.28","-10.71"
"24.083693568","-9.22","0.47","-8.04"
"24.192745472000002","0.43","-0.86","1.02"
"24.251465728000003","-2.12","4.28","-2.67"
"24.293408768000003","-0.43","1.18","-5.33"
"24.360517632","-20.01","2.67","-8.12"
"24.444403712000003","-20.01","0.04","-9.06"
"24.528289792000002","-5.14","0.04","-4.75"
"24.620564480000002","0.16","2.63","0.90"
"24.712839168000002","-2.90","-0.39","-1.77"
"24.821891072000003","-9.89","2.04","-4.79"
"24.888999936","-20.01","-0.75","-10.59"
"24.939331584","-20.01","2.75","-11.02"
"24.998051840000002","-4.20","-0.31","-4.63"
"25.090326528000002","-3.92","-0.16","3.37"
"25.182601216000002","0.27","1.61","-0.82"
"25.274875904","-4.24","1.41","-7.69"
"25.367150592","-20.01","-0.35","-11.22"
"25.442648064","-20.01","2.08","-9.10"
"25.518145536000002","-4.16","1.84","-1.84"
"25.5852544","0.27","0.35","1.29"
"25.652363264","-2.75","1.57","-1.45"
"25.727860736","-18.91","2.08","-6.90"
"25.820135424","-20.01","-4.28","-8.75"
"25.929187328","-16.63","1.61","-9.81"
"26.038239232000002","-2.12","-0.24","2.31"
"26.105348096","-0.78","1.26","0.75"
"26.180845568000002","-1.96","3.92","-3.18"
"26.264731648","-20.01","-3.22","-11.69"
"26.357006336","-20.01","2.31","-12.28"
"26.415726592000002","-16.59","0.08","-7.92"
"26.482835456","0.67","2.90","-0.16"
"26.575110144","-0.43","-0.43","0.16"
"26.667384832000003","-4.31","-2.75","-4.94"
"26.768048128","-17.57","8.43","-15.06"
"26.826768384","-20.01","-5.61","-6.55"
"26.868711424","-7.26","-0.04","-6.63"
"26.944208896000003","-1.10","-0.78","3.84"
"27.036483584000003","-0.04","3.53","-1.29"
"27.531411456","-5.02","0.31","-2.71"
"27.556577280000003","-20.01","2.28","-9.81"
"27.598520320000002","-20.01","2.94","-10.83"
"27.615297536000003","-3.06","-0.27","-4.55"
"27.623686144","0.35","3.96","0.31"
"27.632074752","-3.33","-6.04","-3.33"
"27.665629184","-14.98","4.79","-5.45"
"27.674017792","-20.01","0.94","-9.53"
"27.741126656000002","-16.91","3.96","-9.85"
"27.841789952000003","-2.39","-2.47","-2.16"
"27.925676032000002","-2.31","1.92","-0.43"
"28.001173504","-0.35","1.73","-1.88"
"28.076670976000003","-20.01","0.16","-16.63"
"28.168945664000002","-20.01","4.63","-8.32"
"28.269608960000003","-18.08","1.18","-7.18"
"28.378660864","-0.78","1.18","-0.51"
"28.454158336000003","-0.78","1.18","-0.43"
"28.529655808","-3.18","-1.73","-2.24"
"28.621930496","-16.04","-0.90","-12.91"
"28.689039360000002","-20.01","0.94","-8.55"
"28.747759616000003","-16.40","0.27","-8.55"
"28.81486848","0.27","-1.37","1.57"
"28.89875456","-1.88","2.47","0.12"
"28.982640640000003","-1.69","1.37","-2.20"
"29.066526720000002","-20.01","-1.29","-9.38"
"29.175578624000003","-20.01","6.55","-14.24"
"29.251076096000002","-15.38","0.27","-9.69"
"29.318184960000004","3.53","2.63","-0.47"
"29.393682432000002","-0.59","-0.59","-2.16"
"29.511122944","-0.94","-3.14","-3.41"
"29.586620416000002","-20.01","4.24","-13.26"
"29.662117888","-20.01","0.12","-12.28"
"29.729226752000002","-10.40","-2.04","-6.55"
"29.796335616","2.75","2.35","-0.27"
"29.880221696000003","-0.35","4.00","-1.61"
"29.9892736","-4.39","0.71","-3.61"
"30.056382464000002","-19.69","0.12","-13.02"
"30.106714112000002","-20.01","0.04","-9.22"
"30.182211584","-7.37","0.67","-4.28"
"30.28287488","2.31","-0.16","1.65"
"30.383538176000002","-1.57","0.43","-1.77"
"30.492590080000003","-10.36","-2.35","-9.77"
"30.584864768000003","-20.01","3.02","-10.32"
"30.626807808000002","-20.01","5.14","-10.55"
"30.693916672","-3.77","-0.59","-3.53"
"30.761025536000002","-3.14","-0.63","2.20"
"30.836523008","-0.24","4.31","-2.86"
"30.912020480000002","-8.55","-0.39","-12.94"
"30.99590656","-20.01","3.02","-12.83"
"31.113347072000003","-20.01","-0.39","-9.89"
"31.214010368","-3.33","-0.35","-2.20"
"31.297896448000003","0.67","1.84","1.37"
"31.348228096000003","-2.90","1.02","-2.12"
"31.41533696","-19.02","6.04","-7.30"
"31.49922304","-20.01","-4.12","-8.59"
"31.583109120000003","-15.93","3.22","-9.45"
"31.683772416000004","-1.37","0.12","1.96"
"31.784435712","-1.61","-0.04","-0.55"
"31.859933184000003","-0.20","3.06","-2.67"
"31.910264832000003","-20.01","2.20","-11.73"
"31.977373696","-20.01","4.67","-12.83"
"32.086425600000005","-11.92","-1.65","-6.83"
"32.161923072","3.33","1.92","-0.75"
"32.229031936000005","-1.45","-0.47","-2.55"
"32.287752192","0.04","-0.51","-5.02"
"32.363249664","-20.01","10.83","-11.69"
"32.447135744","-20.01","0.78","-11.57"
"32.531021824","-6.16","-1.02","-6.24"
"33.042726912","-1.22","1.45","1.73"
"33.067892736000005","-0.59","2.55","-3.77"
"33.118224384","-2.39","1.26","-5.30"
"33.1350016","-20.01","1.41","-7.57"
"33.143390208","-20.01","1.14","-9.49"
"33.160167424","-4.12","0.00","-2.55"
"33.168556032000005","2.94","2.24","-0.12"
"33.210499072000005","-3.88","-0.27","-0.12"
"33.294385152000004","-13.10","-0.27","-6.51"
"33.395048448000004","-20.01","2.63","-12.12"
"33.478934528","-19.38","4.16","-10.12"
"33.537654784000004","-4.16","-1.57","-2.90"
"33.613152256","-2.24","0.82","2.20"
"33.713815552","-3.26","2.08","-0.27"
"33.814478848","-12.94","0.98","-12.43"
"33.88997632","-20.01","6.20","-14.28"
"33.940307968","-18.83","0.39","-9.57"
"34.007416832000004","-0.16","0.12","-0.12"
"34.091302912","0.59","2.55","-0.90"
"34.166800384000005","-2.20","-3.92","-0.86"
"34.275852288","-16.12","2.51","-15.30"
"34.384904192","-20.01","-1.96","-9.92"
"34.460401664","-12.67","-0.04","-8.63"
"34.502344704","1.57","-1.73","1.33"
"34.569453568","0.20","4.86","-1.65"
"34.695282688","-1.84","1.45","-1.88"
"34.77078016","-20.01","-0.27","-10.75"
"34.829500416","-20.01","3.45","-10.63"
"34.89660928","-9.61","1.65","-6.94"
"34.98049536","4.67","-1.41","0.75"
"35.055992832","-1.92","0.00","-0.59"
"35.139878912","-5.77","-3.06","-6.20"
"35.223764992","-20.01","4.86","-6.71"
"35.31603968","-20.01","3.92","-10.00"
"35.416702976","-5.61","-1.06","-5.26"
"35.52575488","-2.04","0.24","2.31"
"35.601252352","0.12","2.86","-1.29"
"35.651584","-5.18","5.26","-9.57"
"35.727081472","-20.01","-0.94","-10.98"
"35.819356160000005","-20.01","0.67","-9.45"
"35.903242240000004","-6.08","0.94","-2.75"
"35.978739712","2.16","2.31","2.28"
"36.054237184","-5.41","-0.82","-2.51"
"36.138123264","-15.02","0.67","-7.65"
"36.222009344","-20.01","-3.37","-12.59"
"36.331061248000005","-17.53","2.24","-9.10"
"36.414947328000004","-2.35","-0.31","0.04"
"36.473667584000005","-2.00","0.63","0.16"
"36.540776448","0.00","3.80","-2.86"
"36.633051136","-20.01","-1.65","-9.89"
"36.708548608","-19.10","0.43","-11.81"
"36.78404608","-15.02","3.37","-8.71"
"36.884709376","0.04","-0.82","0.75"
"36.95181824","1.14","2.98","-1.41"
"37.027315712000004","-2.24","-0.04","-1.29"
"37.127979008000004","-20.01","3.49","-12.16"
"37.228642304000005","-20.01","-3.49","-8.28"
"37.304139776","-12.67","-0.35","-9.61"
"37.354471424","-0.08","3.45","2.12"
"37.429968896000005","-1.77","1.69","-0.51"
"37.522243584","-1.41","2.00","-4.12"
"37.589352448","-18.67","-0.16","-8.94"
"37.690015744","-20.01","6.98","-9.77"
"37.765513216","-12.91","4.08","-7.06"
"37.841010688000004","4.55","-2.47","-0.47"
"37.899730944000005","-1.49","0.04","-1.49"
"37.975228416","-0.59","-6.08","-3.96"
"38.075891712","-20.01","9.45","-7.81"
"38.562430976","-20.01","4.20","-10.28"
"38.5875968","-5.69","1.37","-6.51"
"38.595985408000004","-1.10","-0.86","1.96"
"38.612762624000005","-0.16","1.29","-0.31"
"38.62953984","-3.92","2.12","-8.75"
"38.646317056","-20.01","-2.24","-12.75"
"38.713425920000006","-20.01","1.37","-9.45"
"38.730203136","-6.63","0.27","-4.00"
"38.814089216","3.18","2.43","1.65"
"38.931529728","-4.79","-0.39","-2.67"
"39.0070272","-13.06","2.28","-5.69"
"39.057358848","-20.01","1.29","-9.18"
"39.13285632","-17.97","1.88","-9.85"
"39.208353792000004","-3.69","-0.94","-0.75"
"39.292239872","-1.84","1.06","1.02"
"39.376125952","-1.06","0.31","-2.28"
"39.434846208","-16.00","-2.12","-11.06"
"39.510343680000005","-19.22","2.47","-9.14"
"39.585841152","-19.14","1.96","-7.81"
"39.661338624","-1.14","-0.71","-0.16"
"39.745224704","0.12","2.31","-0.16"
"39.829110784","-2.28","-2.67","-1.37"
"39.921385472000004","-17.77","6.32","-8.87"
"40.022048768000005","-20.01","-2.08","-8.32"
"40.105934848000004","-14.04","-1.45","-8.83"
"40.198209536","-0.08","1.10","0.08"
"40.282095616","-1.02","0.90","0.20"
"40.365981696000006","-1.37","1.77","-2.00"
"40.441479168","-20.01","-0.47","-8.32"
"40.508588032000006","-20.01","8.08","-10.43"
"40.584085504","-15.18","-0.24","-7.88"
"40.676360192000004","0.20","1.06","-0.16"
"40.777023488000005","-0.12","-1.37","-0.86"
"40.860909568000004","-2.79","-2.63","-5.26"
"40.928018432","-20.01","5.57","-6.63"
"41.003515904000004","-20.01","0.31","-8.20"
"41.104179200000004","-13.73","-2.20","-8.36"
"41.179676672","1.92","1.84","2.47"
"41.263562752000006","-0.94","5.41","-0.94"
"41.330671616000004","-1.77","0.55","-5.18"
"41.406169088000006","-19.93","-0.86","-12.08"
"41.473277952000004","-20.01","1.26","-10.16"
"41.548775424000006","-10.79","2.28","-6.12"
"41.64943872","3.10","-0.20","1.29"
"41.750102016","-2.43","-1.45","-1.73"
"41.825599488","-4.08","-3.30","-4.43"
"41.875931136000005","-19.69","4.51","-7.69"
"41.951428608","-20.01","3.96","-9.49"
"42.043703296000004","-10.71","-0.43","-6.16"
"42.119200768000006","2.71","-1.37","0.59"
"42.19469824","-0.78","3.18","-1.41"
"42.27858432","-2.08","2.04","-3.88"
"42.3624704","-19.30","-1.18","-10.00"
"42.454745088","-20.01","3.14","-10.90"
"42.555408384","-10.08","2.00","-7.41"
"42.639294464","2.82","0.20","0.35"
"42.69801472","-0.51","-2.79","-1.41"
"42.773512192000005","-2.00","-3.33","-2.67"
"42.849009664","-20.01","7.69","-3.80"
"42.958061568000005","-20.01","0.94","-9.49"
"43.03355904","-9.41","1.06","-6.35"
"43.092279296","1.33","0.43","0.59"
"43.176165376","-1.10","3.06","-0.43"
"43.268440064","-2.00","1.29","-1.69"
"43.343937536000006","-20.01","1.92","-8.79"
"43.419435008","-20.01","3.73","-8.63"
"43.511709696000004","-7.73","-0.47","-3.22"
"43.587207168000006","4.12","2.94","2.04"
"44.073746432","-3.18","-1.14","-2.47"
"44.090523648","-13.96","-5.37","-4.20"
"44.182798336000005","-20.01","-0.16","-12.24"
"44.20796416","-19.50","3.10","-10.47"
"44.224741376000004","-4.12","-0.43","-1.84"
"44.241518592000006","-2.63","-1.96","1.57"
"44.258295808","0.20","2.59","-3.26"
"44.317016064","-15.14","-1.73","-9.89"
"44.325404672000005","-19.10","6.75","-8.28"
"44.409290752000004","-17.61","1.65","-7.57"
"44.484788224000006","-4.98","1.29","-0.47"
"44.535119872","0.35","2.00","0.47"
"44.610617344000005","-0.98","-2.67","-2.71"
"44.694503424000004","-20.01","5.30","-7.02"
"44.770000896000006","-20.01","0.82","-9.57"
"44.853886976000005","-12.67","1.61","-6.98"
"44.946161664","-0.16","-0.08","0.75"
"45.063602176","-1.10","-0.16","-1.22"
"45.17265408","-2.82","1.22","-4.04"
"45.248151552","-20.01","-1.10","-6.67"
"45.2984832","-20.01","0.98","-7.61"
"45.382369280000006","-13.57","2.86","-6.47"
"45.466255360000005","1.84","-1.14","-0.35"
"45.524975616000006","0.24","1.45","-2.90"
"45.600473088","-3.69","-0.55","-2.67"
"45.684359168","-18.08","9.69","-9.18"
"45.785022464","-20.01","2.35","-7.30"
"45.852131328000006","-9.14","-0.43","-6.00"
"45.936017408000005","2.47","0.75","0.20"
"46.019903488000004","-1.80","0.75","-1.06"
"46.103789568","-2.00","2.86","-4.43"
"46.187675648","-20.01","-3.10","-8.32"
"46.279950336000006","-20.01","1.77","-8.08"
"46.355447808","-7.02","0.94","-5.10"
"46.414168064","3.53","1.69","0.55"
"46.498054144","-3.69","0.55","-2.20"
"46.590328832000004","-7.10","-3.30","-3.84"
"46.674214912000004","-20.01","4.08","-10.40"
"46.749712384000006","-20.01","4.51","-10.32"
"46.825209856","-6.39","-1.10","-2.86"
"46.909095936","1.33","1.14","0.75"
"46.984593408","-1.73","2.67","-0.63"
"47.051702272","-8.24","2.51","-10.40"
"47.152365568","-20.01","3.41","-7.06"
"47.244640256000004","-20.01","-0.94","-7.77"
"47.320137728000006","-3.33","-1.57","-1.61"
"47.3956352","-0.04","3.73","0.59"
"47.471132672","-2.79","-1.14","-1.61"
"47.546630144000005","-18.59","1.06","-6.51"
"47.630516224000004","-20.01","-2.43","-9.30"
"47.714402304000004","-15.65","1.65","-7.02"
"47.798288384","-0.16","0.98","-1.06"
"47.890563072000006","0.12","1.88","-0.43"
"47.966060544","-2.86","2.67","-2.82"
"48.033169408000006","-20.01","0.71","-7.18"
"48.100278272000004","-17.97","4.28","-12.51"
"48.175775744000006","-12.63","1.45","-7.41"
"48.242884608000004","2.79","-0.27","-0.82"
"48.318382080000006","-0.43","-0.94","-2.35"
"48.427433984000004","-0.98","-1.92","-3.92"
"48.536485888","-20.01","7.65","-5.45"
"48.662315008","-20.01","1.06","-10.16"
"48.73781248","-8.94","1.18","-4.75"
"48.788144128000006","4.00","-0.55","-0.86"
"48.838475776","-2.12","2.75","-1.14"
"48.922361856","-4.24","3.33","-6.71"
"49.023025152","-18.24","0.59","-4.79"
"49.132077056","-20.01","3.37","-8.04"
"49.543118848000006","-10.12","-0.47","0.86"
"49.559896064","1.96","-0.71","0.31-1.29"
"49.57667328","-15.46","1.92","-8.24-20.01"
"49.593450496","-15.14","1.80","-8.47"
"49.677336576","1.84","0.00","0.63"
"49.736056832","0.55","-0.59","-0.71"
"49.811554304000005","-2.24","2.55","-1.57"
"49.895440384000004","-19.97","-1.06","-8.98"
"49.996103680000004","-20.01","1.49","-13.22"
"50.063212544","-12.59","2.98","-7.30"
"50.113544192000006","3.73","-0.55","-0.35"
"50.20581888","-0.98","-0.16","-1.22"
"50.281316352000005","-4.08","-3.41","-3.69"
"50.381979648000005","-19.22","8.75","-11.89"
"50.474254336","-20.01","4.00","-10.98"
"50.541363200000006","-7.77","-0.35","-6.16"
"50.616860672","2.00","-0.90","2.28"
"50.717523968","0.67","2.43","-3.22"
"50.834964480000004","-4.75","2.71","-4.94"
"50.91885056","-20.01","-0.35","-5.02"
"50.96918220800001","-20.01","0.08","-8.04"
"51.053068288000006","-5.77","2.67","-4.79"
"51.095011328000005","2.31","0.94","1.80"
"51.1705088","-2.90","0.82","-1.80"
"51.271172096","-13.38","-0.16","-8.67"
"51.363446784000004","-20.01","0.82","-10.94"
"51.472498688","-20.01","3.30","-10.83"
"51.556384768","-2.00","-1.33","-0.47"
"51.640270848","-1.14","0.55","0.47"
"51.707379712000005","-2.31","1.02","-1.18"
"51.75771136","-15.61","-0.59","-9.85"
"51.84159744","-20.01","2.31","-9.73"
"51.942260736","-18.99","1.37","-8.00"
"52.017758208000004","-1.73","1.14","-0.98"
"52.101644288","0.04","-0.20","0.12"
"52.210696192","-0.39","1.14","-2.55"
"52.286193664","-20.01","-1.06","-9.92"
"52.336525312000006","-20.01","-1.88","-9.45"
"52.412022784","-13.38","-0.67","-5.92"
"52.495908864","3.10","2.75","0.47"
"52.588183552000004","-0.43","1.18","-0.98"
"52.646903808000005","-2.39","2.43","-2.75"
"52.714012672","-20.01","-1.29","-7.61"
"52.797898752","-20.01","2.67","-11.22"
"52.873396224000004","-6.86","-0.12","-3.45"
"52.948893696000006","4.00","1.53","0.20"
"53.041168384","-3.10","1.02","-2.59"
"53.125054464","-7.26","-2.86","-7.14"
"53.208940544","-20.01","0.55","-6.16"
"53.276049408000006","-20.01","3.49","-10.43"
"53.343158272000004","-2.55","1.65","0.55"
"53.468987392","-2.79","-1.14","0.94"
"53.586427904000004","-3.10","1.29","-0.39"
"53.670313984","-6.20","-0.67","-12.63"
"53.720645632","-20.01","4.16","-11.73"
"53.804531712000006","-19.38","1.84","-9.57"
"53.871640576000004","-0.55","-1.53","0.82"
"53.955526656","0.20","3.30","-0.90"
"54.04780134400001","-2.67","-3.92","-2.75"
"54.1065216","-15.46","5.73","-14.20"
"54.182019072","-20.01","-0.55","-8.98"
"54.299459584000004","-11.81","-0.75","-6.08"
"54.400122880000005","3.88","-1.41","0.39"
"54.509174784","-2.47","4.20","-1.02"
"54.593060864","-1.61","2.75","-3.73"
"55.079600128","-20.01","-0.75","-14.08"
"55.582916608000005","-20.01","3.26","-12.98"
"55.61647104","-8.43","-0.71","-4.90"
"55.641636864000006","1.69","1.69","0.71"
"55.65841408","-2.28","0.16","-1.41"
"55.675191296","-3.96","-3.80","-12.04"
"55.691968512","-20.01","7.02","-13.06"
"55.708745728000004","-20.01","2.08","-13.38"
"55.725522944000005","-2.75","0.71","-0.98"
"55.733911552","-2.63","0.27","2.16"
"55.750688768","-2.04","4.16","-0.71"
"55.759077376","-10.55","0.35","-10.51"
"55.767465984000005","-20.01","2.51","-14.67"
"55.826186240000006","-20.01","1.73","-8.55"
"55.84296345600001","-2.08","-0.24","0.59"
"55.851352064000004","-1.57","1.10","-0.12"
"55.910072320000005","-2.31","-1.02","-2.90"
"55.993958400000004","-18.28","0.08","-11.65"
"56.061067264","-20.01","1.02","-8.55"
"56.144953344","-15.18","1.49","-9.41"
"56.228839424","-0.51","-2.39","0.43"
"56.295948288000005","-1.84","4.55","0.12"
"56.379834368000004","-0.27","1.88","-2.08"
"56.472109056","-20.01","-1.49","-12.36"
"56.522440704000005","-20.01","4.82","-10.20"
"56.572772352","-17.77","-0.63","-8.47"
"56.665047040000005","-1.80","1.02","0.71"
"56.748933120000004","0.04","2.08","0.16"
"56.824430592000006","-3.02","-0.75","-1.57"
"56.967036928000006","-19.50","4.16","-9.61"
"57.092866048000005","-20.01","-2.90","-10.51"
"57.218695168","-16.20","0.82","-7.96"
"57.235472384000005","-1.33","-0.43","1.49"
"57.361301504000004","-0.43","2.12","-0.82"
"57.478742016000005","0.27","1.92","-2.00"
"57.503907840000004","-20.01","-3.37","-9.06"
"57.612959744","-20.01","4.86","-12.67"
"57.63812556800001","-14.95","1.06","-8.63"
"57.75556608","-0.47","-1.22","1.49"
"57.78073190400001","0.00","2.04","-0.63"
"57.906561024000005","-2.31","-1.26","-0.75"
"57.990447104000005","-19.85","8.08","-13.42"
"58.049167360000006","-20.01","-2.82","-9.77"
"58.099499008","-11.02","1.96","-7.14"
"58.191773696000006","0.55","-0.51","1.49"
"58.25049395200001","-0.75","2.43","-1.77"
"58.325991424","-2.20","1.80","-4.31"
"58.401488896000004","-18.87","-0.94","-10.94"
"58.476986368000006","-20.01","5.37","-11.92"
"58.544095232000004","-10.43","0.75","-7.49"
"58.619592704000006","0.86","0.16","1.61"
"58.711867392","-1.80","0.67","-1.84"
"58.804142080000005","-0.24","-5.26","-4.47"
"58.888028160000005","-20.01","6.55","-9.02"
"58.971914240000004","-20.01","0.63","-9.30"
"59.072577536000004","-6.04","1.06","-4.94"
"59.190018048000006","-2.55","0.27","2.08"
"59.273904128000005","-0.98","2.04","-2.00"
"59.332624384000006","-3.06","3.30","-4.63"
"59.416510464000005","-20.01","2.51","-8.20"
"59.475230720000006","-20.01","0.12","-10.75"
"59.559116800000005","-9.26","2.00","-6.63"
"59.643002880000004","4.79","0.31","-1.26"
"59.693334528","-1.92","0.00","-1.49"
"59.752054784","-3.77","-1.77","-5.14"
"59.835940864","-20.01","6.63","-11.65"
"59.944992768000006","-20.01","2.28","-13.34"
"60.070821888000005","-8.67","-1.14","-5.37"
"60.137930752","1.02","0.59","1.14"
"60.188262400000006","-1.45","2.08","-1.57"
"60.272148480000006","-0.04","1.57","-7.30"
"60.339257344","-20.01","-1.73","-13.85"
"60.406366208","-20.01","5.26","-10.20"
"60.498640896000005","-10.04","0.78","-6.55"
"61.04390041600001","2.63","0.51","1.22"
"61.555605504000006","-1.80","-1.37","-2.63"
"61.57238272000001","-1.73","-2.90","-3.45"
"61.589159936","-19.97","5.88","-3.14"
"61.597548544000006","-20.01","2.20","-6.04"
"61.61432576000001","-9.92","3.30","-5.30"
"61.631102976","-5.49","-0.71","-2.39"
"61.647880192","-6.55","1.92","-2.31"
"61.723377664000004","-7.61","0.20","-4.47"
"61.740154880000006","-12.91","2.12","-7.18"
"61.748543488","-10.40","1.41","-5.37"
"61.75693209600001","-9.10","-1.92","-5.53"
"61.773709312","-9.18","0.27","-5.65"
"61.790486528","-9.38","0.43","-5.65"
"61.807263744000004","-10.24","0.20","-5.41"
"61.882761216000006","-10.51","0.75","-5.10"
"61.933092864","-10.04","-0.20","-5.81"
"61.99181312","-10.00","0.43","-5.61"
"62.109253632000005","-10.04","0.63","-5.33"
"62.11764224","-9.53","0.39","-5.77"
"62.176362496","-10.00","0.94","-5.84"
"62.260248576","-9.41","0.94","-5.49"
"62.344134656","-9.65","0.71","-5.77"
"62.46996377600001","-9.92","0.63","-5.73"
"62.537072640000005","-9.73","1.26","-5.77"
"62.61257011200001","-9.85","0.43","-5.30"
"62.662901760000004","-9.61","0.51","-5.92"
"62.738399232000006","-9.81","0.51","-5.57"
"62.83067392","-9.77","0.75","-5.77"
"62.89778278400001","-9.73","-0.04","-5.49"
"62.973280256","-9.89","0.75","-5.30"
"63.057166336","-9.92","0.82","-5.41"
"63.132663808000004","-10.04","0.67","-5.30"
"63.233327104000004","-9.96","0.35","-5.37"
"63.317213184","-9.65","0.55","-5.69"
"63.401099264","-9.77","0.75","-5.69"
"63.476596736000005","-9.61","0.63","-5.73"
"63.55209420800001","-9.81","0.59","-5.77"
