"NAME:","idan_walk_1"
"EXPERIMENT TIME:","Thu Jun 01 11:45:53 GMT+03:00 2023"
"ACTIVITY TYPE:","Walking"
"COUNTS OF ACTUAL STEPS:","91"
"  "," "
"Time [sec]","ACC X","ACC Y","ACC Z"
"0","-8.36","-2.86","-2.63"
"0.067108864","-7.14","-4.12","-2.28"
"0.142606336","-11.26","-2.39","-1.10"
"0.218103808","-7.85","-5.96","-2.00"
"0.268435456","-12.04","-6.08","-1.96"
"0.35232153600000005","-12.98","-5.57","-5.81"
"0.436207616","-12.36","-3.88","-3.14"
"0.5284823040000001","-6.04","-2.67","-3.84"
"0.595591168","-7.45","-0.31","-2.98"
"0.687865856","-7.14","-0.98","-0.90"
"0.7549747200000001","-10.40","-3.26","-2.79"
"0.830472192","-13.02","-2.59","-4.08"
"0.9646899200000001","-9.85","-2.43","-7.06"
"1.031798784","-13.85","-3.88","-4.12"
"1.1072962560000001","-6.04","-2.47","-2.51"
"1.182793728","-7.53","-2.08","-2.28"
"1.249902592","-6.59","-2.59","-1.06"
"1.34217728","-11.34","-3.14","-2.90"
"1.400897536","-9.53","-5.02","-3.61"
"1.484783616","-9.18","-6.16","-8.90"
"1.5770583040000001","-13.45","-2.86","-3.73"
"1.644167168","-4.43","-3.30","-3.53"
"1.7867735040000001","-7.45","-0.55","-2.90"
"1.853882368","-8.16","-0.63","-1.80"
"1.9209912320000002","-11.65","-3.61","-2.08"
"1.9964887040000001","-9.96","1.02","-1.37"
"2.063597568","-15.42","0.43","-9.85"
"2.130706432","-11.69","-4.31","-3.41"
"2.206203904","-6.75","-1.14","-4.08"
"2.3068672","-6.20","-2.63","-3.14"
"2.7934064640000003","-6.71","-3.53","-2.00"
"2.801795072","-10.43","-3.57","-2.39"
"3.305111552","-9.85","-5.10","-0.27"
"3.321888768","-14.36","-9.92","-7.22"
"3.321888768","-8.55","-1.88","-4.71-7.22"
"3.3554432000000003","-9.30","-3.37","-3.73"
"3.422552064","-7.02","-1.96","-1.92"
"3.5148267520000003","-7.85","-2.79","-2.08"
"3.5987128320000004","-7.49","-3.26","-1.96"
"3.707764736","-11.96","-5.92","-3.22"
"3.783262208","-9.38","-4.98","-3.61"
"3.850371072","-13.69","-5.33","-7.81"
"3.9174799360000003","-13.45","-1.69","-2.47"
"4.051697664000001","-4.43","-2.51","-2.94"
"4.0852520960000005","-8.00","-0.55","-2.86"
"4.169138176000001","-8.32","-1.65","-1.53"
"4.244635648","-11.10","-2.47","-2.90"
"4.336910336","-9.57","0.55","-0.43"
"4.395630592","-13.53","0.78","-7.81"
"4.4879052800000006","-11.14","-4.59","-3.45"
"4.580179968","-6.75","-0.31","-4.16"
"4.672454656","-6.32","-2.16","-3.14"
"4.73956352","-6.51","-3.18","-2.08"
"4.815060992","-10.20","-4.04","-3.10"
"4.882169856","-10.24","-5.10","0.20"
"5.033164800000001","-15.77","-9.77","-6.51"
"5.07510784","-12.47","-1.41","-3.41"
"5.133828096","-7.45","-3.30","-3.88"
"5.226102784","-6.04","-1.33","-2.86"
"5.28482304","-8.04","-0.35","-1.53"
"5.377097728000001","-9.77","-1.26","-2.24"
"5.460983808","-14.87","-1.77","-1.33"
"5.544869888","-15.65","0.20","-6.83"
"5.62036736","-7.61","-2.31","-4.71"
"5.687476224","-10.28","-2.12","-4.28"
"5.83008256","-6.24","-1.84","-3.37"
"5.897191424000001","-7.92","-2.86","-1.88"
"5.9643002880000004","-8.08","-3.37","-2.00"
"6.014631936000001","-10.28","-5.18","-3.18"
"6.1069066240000005","-11.45","-4.24","-2.75"
"6.199181312","-10.43","-7.10","-9.02"
"6.257901568","-13.30","-1.77","-3.06"
"6.350176256","-5.45","-3.80","-3.65"
"6.442450944000001","-8.16","-0.59","-2.55"
"6.501171200000001","-8.04","-0.71","-1.49"
"6.643777536","-10.67","-0.71","-2.63"
"6.777995264","-13.96","-0.27","-1.45"
"6.9206016","-16.04","-1.45","-7.73"
"6.987710464","-6.63","-1.53","-6.59"
"6.996099072000001","-10.55","-2.28","-4.67"
"7.012876288","-6.83","-1.88","-3.10"
"7.0883737600000005","-7.88","-2.63","-1.77"
"7.163871232000001","-8.08","-2.79","-1.10"
"7.239368704","-11.14","-5.61","-2.16"
"7.314866176000001","-10.63","-3.06","1.65"
"7.398752256000001","-16.16","-7.81","-11.73"
"7.6671877120000005","-13.18","-3.84","-2.24"
"7.67557632","-4.94","-2.59","-3.96"
"7.876902912","-8.39","-1.06","-3.30"
"7.977566208000001","-8.16","-0.71","-1.88"
"8.128561152","-9.57","-1.53","-2.86"
"8.254390272","-12.94","-1.65","0.67"
"8.30472192","-17.69","1.80","-9.26"
"8.380219392","-11.02","-3.18","-4.28"
"8.774483968","-5.41","-0.27","-4.12"
"9.277800448","-6.98","-3.10","-2.12"
"9.277800448","-7.45","-2.12","-1.57-8.63"
"9.286189056000001","-7.49","-1.49","-1.92"
"9.781116928000001","-8.43","-0.55","-1.18"
"9.781116928000001","-15.38","-2.67","-2.00"
"10.276044800000001","-15.93","2.00","-7.69-8.00"
"10.284433408","-13.38","-3.73","-3.57"
"10.284433408","-4.59","-2.39","-3.14"
"10.787749888","-8.00","-0.59","-2.35"
"10.787749888","-8.00","-0.12","-0.78-11.96"
"10.796138496000001","-13.42","-2.28","-9.85"
"11.28267776","-13.26","-6.16","-3.49"
"11.78599424","-6.39","0.86","-2.63"
"11.78599424","-6.12","-2.63","-2.12-7.65"
"11.802771456","-9.89","-1.65","-4.08"
"11.802771456","-10.59","-0.75","0.43"
"11.811160064000001","-13.89","1.77","-8.36"
"11.811160064000001","-13.49","-4.82","-3.41-6.00"
"11.861491712000001","-10.47","-4.28","-3.73"
"11.945377792","-8.39","-4.55","-0.47"
"12.004098048000001","-10.32","-8.24","-7.65"
"12.104761344","-16.20","-3.45","-3.06"
"12.180258816","-6.04","-2.24","-3.92"
"12.255756288","-6.71","-1.02","-3.10"
"12.339642368000002","-7.85","-0.98","-1.77"
"12.41513984","-9.65","-0.75","-2.86"
"12.549357568000001","-12.79","0.35","0.39"
"12.616466432000001","-17.89","2.00","-11.30"
"12.683575296","-8.63","-3.02","-4.75"
"12.75068416","-7.45","-1.77","-3.65"
"12.834570240000001","-6.98","-2.82","-2.28"
"12.901679104000001","-7.69","-2.63","-1.18"
"12.985565184","-9.18","-4.04","-1.80"
"13.077839872","-11.10","-5.33","0.16"
"13.161725952000001","-15.02","-10.28","-5.81"
"13.270777856","-9.22","-2.90","-5.26"
"13.33788672","-7.53","-3.65","-4.86"
"13.404995584000002","-6.71","-2.24","-3.53"
"13.54760192","-7.73","0.47","-1.80"
"13.555990528","-9.02","-0.71","-3.61"
"13.690208256","-14.75","-1.88","-0.51"
"13.71537408","-18.24","1.33","-8.94"
"13.807648768000002","-9.77","-2.12","-4.28"
"13.933477888","-8.71","-1.88","-4.24"
"13.967032320000001","-7.06","-2.90","-3.37"
"14.059307008000001","-8.00","-2.90","-1.92"
"14.118027264","-8.75","-2.39","-1.61"
"14.227079168000001","-12.24","-6.75","-1.73"
"14.294188032000001","-15.22","-10.08","-5.18"
"14.361296896","-7.18","-2.47","-7.26"
"14.495514624","-9.06","-3.92","-4.82"
"14.562623488000002","-5.37","-1.84","-3.57"
"14.629732352000001","-7.88","-0.86","-2.55"
"14.688452608","-7.69","-0.12","-1.26"
"14.76395008","-10.83","-3.37","-3.18"
"14.847836160000002","-10.12","0.75","-2.12"
"14.931722240000001","-14.32","-0.43","-9.34"
"15.023996928","-12.79","-4.98","-2.59"
"15.099494400000001","-5.73","0.39","-3.69"
"15.200157696000002","-6.63","-2.90","-2.51"
"15.267266560000001","-6.67","-2.90","-1.61"
"15.342764032000002","-8.90","-3.77","-3.61"
"15.418261504","-10.32","-4.79","-0.51"
"15.552479232000001","-9.73","-9.96","-5.81"
"15.619588096000001","-8.12","-3.14","-6.86"
"15.653142528000002","-11.14","-3.37","-4.31"
"15.745417216000002","-5.26","-2.28","-3.10"
"15.829303296","-7.92","-0.78","-2.35"
"15.913189376000002","-7.61","-0.31","-2.28"
"15.980298240000002","-11.53","-2.24","-3.30"
"16.064184320000003","-10.63","-2.35","0.51"
"16.1480704","-17.65","1.14","-7.96"
"16.282288128","-10.51","-3.18","-4.24"
"16.3577856","-8.83","-0.78","-4.43"
"16.492003328000003","-7.10","-2.31","-3.22"
"16.559112192","-8.28","-3.65","-2.20"
"16.601055232","-8.67","-2.98","-1.92"
"16.642998272","-12.00","-4.90","-2.08"
"16.73527296","-8.90","-6.24","-1.18"
"16.802381824","-13.42","-8.00","-9.18"
"17.255366656","-14.95","-2.35","-2.47"
"17.775460352","-5.61","-3.26","-3.49"
"17.800626176","-7.85","-0.90","-2.75"
"17.817403392000003","-8.16","-1.37","-1.84"
"17.825792","-10.32","-0.16","-3.77-10.71"
"17.850957824","-12.36","-3.88","-3.14"
"17.934843904","-9.61","-5.69","-2.71"
"18.060673024","-8.83","-7.65","-7.37"
"18.136170496000002","-15.18","-1.53","-3.02"
"18.20327936","-6.04","-3.92","-3.69"
"18.270388224","-6.12","-0.82","-2.98"
"18.337497088000003","-8.08","0.08","-2.08"
"18.480103424000003","-9.18","-1.73","-2.51"
"18.522046464000002","-13.77","-0.78","-1.61"
"18.58076672","-14.59","1.06","-7.73"
"18.673041408","-8.08","-3.22","-8.28"
"18.740150272","-9.38","-3.45","-3.69"
"18.824036352","-6.28","-1.41","-2.79"
"18.907922432","-7.41","-3.41","-2.16"
"19.033751552000002","-7.26","-3.14","-1.61"
"19.092471808000003","-11.14","-3.41","-3.80"
"19.16796928","-9.45","-3.84","-0.47"
"19.235078144000003","-12.91","-8.63","-6.98"
"19.302187008","-14.71","-0.90","-3.57"
"19.436404736","-7.37","-4.82","-3.49"
"19.486736384","-6.32","-1.22","-3.61"
"19.562233856000002","-8.59","0.35","-1.77"
"19.646119936","-9.61","-1.33","-1.65"
"19.704840192000002","-14.00","-2.20","-2.20"
"19.797114880000002","-15.81","-0.24","-3.84"
"19.897778176000003","-10.43","-2.67","-8.16"
"19.998441472","-11.34","-4.59","-3.53"
"20.065550336","-7.06","-0.35","-2.51"
"20.141047808","-6.90","-2.90","-2.51"
"20.199768064","-6.79","-3.14","-1.65"
"20.275265536000003","-12.55","-2.47","-3.57"
"20.409483264000002","-8.32","-5.18","-0.75"
"20.459814912000002","-11.69","-8.20","-6.90"
"20.518535168","-13.73","-1.92","-3.73"
"20.610809856000003","-6.35","-3.69","-3.65"
"20.703084544000003","-7.41","-1.29","-2.55"
"20.7618048","-8.43","0.16","-1.57"
"20.854079488","-9.18","-1.84","-2.43"
"20.937965568000003","-13.93","-1.10","-1.33"
"21.01346304","-15.18","0.39","-5.88"
"21.156069376","-8.39","-2.28","-6.63"
"21.223178240000003","-9.96","-2.98","-4.20"
"21.281898496","-6.63","-1.06","-2.98"
"21.34900736","-7.81","-2.67","-2.28"
"21.424504832","-7.30","-3.18","-1.57"
"21.508390912000003","-12.20","-3.96","-3.49"
"21.617442816","-10.12","-3.69","1.14"
"21.659385856","-14.40","-8.75","-4.59"
"21.751660544","-9.22","-2.67","-4.75"
"21.8103808","-9.73","-3.22","-4.43"
"21.961375744","-5.61","-0.90","-2.79"
"22.028484608000003","-7.77","0.04","-1.41"
"22.095593472","-8.59","-0.94","-1.06"
"22.162702336000002","-15.34","-2.90","-2.12"
"22.2298112","-15.34","2.00","-4.51"
"22.296920064000002","-9.73","-1.41","-8.90"
"22.389194752","-11.45","-4.63","-3.69"
"22.473080832","-6.59","-1.14","-2.94"
"22.540189696000002","-7.57","-2.71","-2.55"
"22.632464384000002","-7.22","-3.14","-1.18"
"22.716350464","-11.22","-3.10","-3.77"
"23.244832768000002","-9.14","-4.59","0.59"
"23.253221376000003","-15.14","-8.79","-5.73"
"23.748149248","-15.57","-1.96","-2.63"
"23.756537856","-6.94","-3.88","-3.49"
"24.7463936","-5.73","-1.41","-2.98"
"24.763170816000002","-8.28","0.12","-1.29-9.10"
"25.241321472000003","-6.55","-0.24","-3.33"
"25.24971008","-8.63","-1.37","-2.59"
"25.744637952","-10.00","-1.29","-2.67-13.81"
"26.247954432","-6.86","-3.73","-7.57"
"26.25634304","-9.89","-3.14","-5.33"
"26.264731648","-4.75","-2.98","-3.18"
"26.273120256000002","-7.65","-0.51","-1.96-7.73"
"26.306674688","-10.51","-2.94","-4.24"
"26.348617728","-9.49","-3.49","0.75"
"26.440892416","-14.24","-9.61","-5.45"
"26.524778496000003","-15.81","-2.16","-2.59"
"26.617053184000003","-7.49","-4.12","-3.84"
"26.709327872000003","-5.22","-1.80","-3.37"
"26.776436736","-8.00","-0.16","-1.06"
"26.851934208000003","-8.55","-0.71","-2.55"
"26.919043072","-16.40","-1.45","-1.49"
"27.061649408","-15.61","-1.18","-6.16"
"27.120369664000002","-7.61","-2.24","-6.43"
"27.179089920000003","-9.34","-2.31","-4.47"
"27.254587392","-6.16","-1.57","-2.35"
"27.338473472","-8.04","-2.86","-2.04"
"27.405582336000002","-8.47","-3.22","-1.45"
"27.497857024","-12.94","-5.69","-1.61"
"27.581743104","-11.26","-7.30","-4.12"
"27.648851968000002","-8.63","-6.28","-6.94"
"27.791458304000002","-14.83","-2.86","-3.33"
"27.858567168","-5.37","-3.02","-3.18"
"27.934064640000003","-7.30","-0.51","-2.75"
"28.001173504","-7.77","-0.71","-1.57"
"28.068282368000002","-11.30","-3.37","-3.10"
"28.14377984","-10.59","-0.86","-0.71"
"28.227665920000003","-15.85","2.75","-7.96"
"28.311552000000002","-11.81","-5.10","-2.67"
"28.378660864","-8.08","-0.86","-3.53"
"28.47932416","-6.71","-2.39","-2.63"
"28.605153280000003","-7.30","-2.75","-1.80"
"28.672262144","-9.14","-4.79","-1.77"
"28.747759616000003","-10.75","-4.20","-0.75"
"28.81486848","-14.83","-9.73","-7.26"
"28.89875456","-7.45","-2.71","-6.83"
"28.974252032000003","-9.06","-3.33","-5.30"
"29.041360896","-5.57","-2.63","-3.33"
"29.108469760000002","-7.14","-0.35","-1.88"
"29.200744448000002","-8.28","-1.02","-1.26"
"29.293019136","-14.28","-2.31","-2.63"
"29.351739392000002","-14.44","-2.24","-4.43"
"29.444014080000002","-11.18","-1.18","-9.41"
"29.553065984000003","-11.10","-5.02","-3.69"
"29.620174848","-6.16","-0.27","-2.90"
"29.687283712000003","-6.83","-2.90","-2.75"
"29.754392576","-7.61","-3.10","-2.04"
"29.888610304","-10.43","-3.30","-3.18"
"29.964107776000002","-9.49","-4.94","-0.51"
"29.997662208","-11.22","-10.51","-7.45"
"30.089936896","-6.94","-0.55","-6.47"
"30.182211584","-13.26","-3.61","-4.08"
"30.257709056000003","-6.12","-3.02","-4.28"
"30.32481792","-8.83","-0.71","-3.49"
"30.425481216","-7.57","-0.75","-2.55"
"30.492590080000003","-10.36","0.00","-2.86"
"30.559698944","-11.34","-4.55","-0.24"
"30.70230528","-18.75","5.41","-6.94"
"30.761025536000002","-10.40","-2.31","-5.81"
"30.895243264","-4.90","-2.16","-5.06"
"30.970740736000003","-7.96","-2.00","-3.26"
"30.979129344","-8.47","-2.94","-2.55"
"31.063015424000003","-8.87","-3.53","-1.80"
"31.130124288","-11.02","-4.47","-3.22"
"31.214010368","-11.38","-5.81","-4.04"
"31.734104064","-9.02","-5.18","-8.83"
"32.245809152","-11.69","-1.80","-4.31"
"32.254197760000004","-5.57","-3.06","-3.37"
"32.270974976000005","-8.55","-0.51","-3.30"
"32.270974976000005","-8.67","-0.47","-2.35-10.43"
"32.279363584","-7.69","-2.75","-1.53"
"32.346472448","-11.14","-3.26","-4.04"
"32.489078784","-10.40","-3.37","0.94"
"32.556187648000005","-15.61","-9.49","-8.08"
"32.623296512","-13.49","-3.84","-3.14"
"32.698793984000005","-6.83","-4.35","-4.08"
"32.765902848","-6.00","-1.29","-3.45"
"32.833011712","-8.16","-1.02","-1.61"
"32.908509184","-9.53","-1.26","-1.45"
"33.017561088","-13.02","-2.79","-1.37"
"33.118224384","-15.93","1.14","-2.98"
"33.151778816000004","-7.57","-2.35","-10.04"
"33.252442112000004","-11.34","-3.30","-3.61"
"33.38665984","-6.08","-0.90","-2.35"
"33.453768704000005","-7.49","-2.55","-1.92"
"33.537654784000004","-6.75","-2.43","-1.92"
"33.596375040000005","-12.51","-5.14","-3.84"
"33.663483904","-9.30","-3.33","1.69"
"33.730592768","-14.55","-7.73","-8.24"
"33.822867456000004","-15.61","-2.98","-3.22"
"33.88997632","-7.18","-3.49","-4.00"
"33.982251008","-6.24","-0.75","-2.47"
"34.066137088000005","-7.85","-0.51","-1.41"
"34.124857344","-9.45","-0.71","-2.31"
"34.217132032","-14.36","-1.73","-0.86"
"34.317795328","-19.42","0.27","-9.61"
"34.452013056000006","-7.57","-2.00","-4.59"
"34.51912192","-9.38","-1.22","-4.94"
"34.594619392000006","-7.10","-1.96","-2.86"
"34.661728256","-7.73","-3.18","-2.31"
"34.72883712","-8.36","-2.71","-1.77"
"34.779168768000005","-11.18","-4.51","-2.90"
"34.879832064000006","-13.38","-6.20","-4.35"
"34.93855232","-6.94","-4.67","-8.87"
"35.030827008","-12.59","-3.61","-4.24"
"35.097935872","-6.12","-2.98","-3.26"
"35.190210560000004","-7.57","-0.75","-2.98"
"35.307651072","-7.88","-0.78","-2.20"
"35.374759936000004","-9.41","-1.96","-3.10"
"35.4418688","-10.71","0.27","-0.67"
"35.508977664","-15.85","0.04","-7.02"
"35.643195392","-12.47","-4.86","-3.22"
"35.710304256","-6.98","0.24","-3.96"
"35.743858688","-7.73","-3.33","-3.18"
"35.836133376","-7.45","-3.30","-1.69"
"35.928408064","-8.75","-3.10","-1.69"
"35.995516928","-10.71","-5.37","-2.63"
"36.079403008","-10.51","-5.49","-4.16"
"36.163289088","-9.73","-5.65","-8.67"
"36.247175168000005","-13.38","-2.79","-4.00"
"36.314284032","-5.33","-3.80","-3.49"
"36.44850176","-8.08","-0.67","-2.98"
"36.523999232","-8.59","-0.75","-1.69"
"36.591108096","-9.41","-0.08","-3.14"
"36.658216960000004","-12.94","-1.14","-0.94"
"36.733714432","-15.34","0.00","-7.85"
"36.817600512000006","-6.55","-1.80","-6.98"
"36.893097984","-9.96","-2.47","-4.12"
"36.968595456","-6.43","-0.86","-3.41"
"37.069258752","-7.57","-3.30","-3.06"
"37.127979008000004","-7.06","-3.14","-2.51"
"37.20347648","-10.43","-4.82","-4.20"
"37.715181568000006","-10.00","-3.22","0.39"
"38.226886656000005","-14.59","-8.79","-5.77"
"38.243663872","-8.59","-1.84","-5.81"
"38.243663872","-8.51","-4.43","-4.59"
"38.268829696000005","-5.81","-1.57","-3.26-7.92"
"38.277218304","-6.94","-2.24","-2.35"
"38.344327168","-6.83","-3.22","-1.69"
"38.41982464","-11.02","-2.90","-4.43"
"38.512099328000005","-10.04","-3.92","-0.75"
"38.604374016","-11.96","-9.57","-5.41"
"38.663094272","-14.75","-1.41","-2.20"
"38.755368960000006","-7.88","-4.31","-4.04"
"38.839255040000005","-6.83","-0.59","-3.22"
"38.923141120000004","-8.04","0.08","-1.69"
"38.990249984","-8.55","-1.29","-1.69"
"39.141244928","-13.10","-3.06","-3.61"
"39.208353792000004","-14.63","-1.57","-4.59"
"39.275462656","-12.28","-3.18","-9.45"
"39.34257152","-12.51","-4.12","-3.10"
"39.409680384000005","-6.51","0.00","-3.30"
"39.476789248","-6.75","-2.94","-2.71"
"39.560675328","-7.49","-3.22","-2.04"
"39.652950016000005","-9.34","-3.06","-2.39"
"39.72005888","-9.85","-5.02","-0.55"
"39.812333568","-13.93","-9.49","-5.49"
"39.896219648000006","-8.08","-2.43","-6.08"
"39.963328512000004","-9.34","-4.35","-5.41"
"40.089157632","-5.33","-1.96","-3.77"
"40.156266496","-7.57","-1.33","-2.94"
"40.223375360000006","-8.47","-0.47","-1.49"
"40.298872832","-11.81","-3.80","-3.53"
"40.365981696000006","-10.59","-1.92","0.98"
"40.458256384","-17.81","-0.78","-7.96"
"40.525365248","-11.81","-4.98","-4.00"
"40.617639936","-8.24","-2.16","-3.14"
"40.709914624","-7.06","-2.90","-2.67"
"40.802189312","-7.85","-2.71","-2.16"
"40.877686784000005","-9.45","-2.35","-1.84"
"40.953184256","-12.28","-6.51","-3.10"
"41.037070336","-9.18","-6.04","-4.35"
"41.104179200000004","-10.36","-7.85","-5.65"
"41.171288064","-15.10","-0.82","-2.75"
"41.3138944","-6.71","-5.53","-4.20"
"41.389391872000004","-6.94","-0.94","-4.00"
"41.431334912000004","-8.43","-0.16","-2.04"
"41.5236096","-9.38","-1.57","-1.45"
"41.582329856","-13.77","-2.04","-2.20"
"41.674604544000005","-15.10","-1.96","-2.90"
"41.758490624000004","-12.71","-2.00","-9.45"
"41.825599488","-13.34","-4.28","-2.63"
"41.917874176000005","-7.88","-0.82","-3.37"
"42.001760256000004","-6.98","-2.55","-2.59"
"42.06886912","-7.57","-2.55","-1.49"
"42.203086848000005","-9.65","-3.65","-2.67"
"42.286972928000004","-9.81","-5.65","-1.22"
"42.3624704","-12.59","-10.47","-6.71"
"42.429579264000004","-8.83","-3.49","-7.41"
"42.471522304000004","-9.30","-3.65","-4.94"
"42.563796992","-6.12","-3.02","-3.61"
"42.647683072","-8.36","0.16","-2.86"
"42.723180544","-7.88","-1.14","-2.16"
"42.815455232000005","-10.12","-1.53","-3.10"
"42.874175488000006","-11.65","0.04","-0.43"
"42.958061568000005","-15.69","-0.27","-7.34"
"43.100667904000005","-8.83","-3.53","-4.75"
"43.159388160000006","-8.47","-0.71","-4.35"
"43.218108416","-7.77","-2.63","-3.18"
"43.696259072000004","-7.53","-3.30","-2.00"
"44.20796416","-7.92","-2.79","-1.92"
"44.224741376000004","-12.08","-4.04","-3.53"
"44.241518592000006","-11.14","-2.59","1.57"
"44.2499072","-15.34","-9.45","-7.92-8.59"
"44.275073024","-14.47","0.08","-6.35"
"44.350570496","-9.34","-3.10","-4.24"
"44.409290752000004","-9.18","-1.18","-3.73"
"44.50156544","-6.94","-2.47","-2.16"
"44.593840128000004","-7.81","-2.90","-1.77"
"44.669337600000006","-8.51","-2.75","-2.20"
"44.761612288","-11.41","-5.69","-2.24"
"44.862275584","-14.00","-6.24","-3.80"
"44.929384448","-7.14","-7.06","-9.02"
"45.00488192","-12.59","-3.26","-4.47"
"45.063602176","-6.12","-3.26","-3.41"
"45.189431296","-7.73","-1.02","-2.98"
"45.239762944000006","-8.59","-0.27","-2.08"
"45.323649024000005","-9.53","-1.61","-2.71"
"45.390757888","-12.59","-1.14","-1.69"
"45.474643968","-14.20","2.35","-6.04"
"45.566918656000006","-9.41","-3.33","-8.36"
"45.642416128","-10.04","-3.30","-4.55"
"45.734690816000004","-6.32","-0.78","-3.30"
"45.818576896","-7.81","-2.98","-2.39"
"45.88568576","-7.45","-3.10","-1.61"
"45.961183232","-11.89","-3.45","-4.35"
"46.103789568","-9.45","-3.45","1.37"
"46.170898432","-13.81","-6.35","-3.96"
"46.229618688","-11.45","-1.73","-5.02"
"46.296727552","-8.39","-3.18","-4.16"
"46.363836416000005","-6.79","-1.33","-3.14"
"46.456111104","-8.63","-0.51","-1.96"
"46.523219968","-9.02","-0.94","-1.10"
"46.623883264","-13.61","-3.69","-2.63"
"46.707769344000006","-15.53","-1.02","-3.65"
"46.791655424000005","-13.02","-0.94","-8.43"
"46.858764288","-13.18","-4.20","-2.86"
"46.934261760000005","-7.49","-1.26","-2.82"
"47.001370624","-7.14","-2.90","-3.33"
"47.093645312","-7.06","-3.33","-2.35"
"47.202697216000004","-9.96","-4.59","-2.98"
"47.26980608","-10.40","-4.39","-0.71"
"47.336914944","-12.08","-9.38","-5.81"
"47.412412416","-5.14","-4.20","-8.67"
"47.496298496","-10.00","-3.53","-5.41"
"47.580184576","-6.12","-2.28","-3.41"
"47.680847872","-7.53","-1.06","-2.94"
"47.756345344","-7.61","-0.71","-2.20"
"47.823454208","-11.06","-1.65","-3.84"
"47.966060544","-10.24","-2.31","0.59"
"48.0247808","-15.69","1.02","-6.39"
"48.06672384","-9.92","-3.45","-4.31"
"48.158998528000005","-8.20","-0.67","-4.47"
"48.242884608000004","-7.65","-2.63","-4.08"
"48.326770688","-8.59","-3.14","-2.35"
"48.385490944000004","-8.75","-2.94","-2.24"
"48.486154240000005","-9.92","-3.06","-3.45"
"48.544874496000006","-10.16","-3.30","-0.59"
"48.637149184","-18.71","-10.55","-8.98"
"48.712646656000004","-11.14","-1.84","-4.59"
"48.855252992000004","-7.10","-4.39","-5.02"
"48.913973248000005","-6.00","-1.18","-3.33"
"48.98947072","-9.81","-1.41","-2.39"
"49.039802368000004","-8.39","-0.51","-2.08"
"49.140465664000004","-11.14","-1.06","-2.86"
"49.207574528","-10.24","-1.22","-2.82"
"49.677336576","-15.06","-1.53","-8.43"
"49.710891008000004","-10.16","-5.57","-3.45"
"49.736056832","-7.10","0.12","-3.10"
"49.74444544","-7.53","-2.59","-2.43"
"49.752834048000004","-7.26","-3.61","-1.80-9.61"
"49.777999872","-10.59","-5.14","-1.10"
"49.853497344000004","-13.73","-11.92","-8.83"
"49.937383424000004","-7.26","-4.39","-7.41"
"50.004492288","-11.30","-3.53","-5.73"
"50.105155584","-7.06","-4.16","-3.57"
"50.172264448","-7.45","-0.43","-2.75"
"50.264539136","-8.04","-1.84","-0.94"
"50.331648","-9.96","-2.12","-3.14"
"50.41553408","-11.61","-1.57","0.16"
"50.482642944000006","-16.95","0.82","-7.81"
"50.616860672","-10.55","-2.63","-4.79"
"50.683969536000006","-8.00","-1.29","-4.55"
"50.751078400000004","-5.88","-2.98","-2.43"
"50.818187264","-8.94","-3.18","-1.65"
"50.935627776000004","-7.77","-3.02","-2.04"
"50.977570816000004","-11.18","-5.84","-2.86"
"51.061456896","-11.81","-5.65","-5.02"
"51.153731584000006","-8.83","-5.37","-7.73"
"51.220840448000004","-13.89","-2.35","-4.67"
"51.313115136","-5.26","-4.82","-3.57"
"51.380224000000005","-7.73","-0.90","-3.06"
"51.480887296000006","-8.63","0.04","-1.92"
"51.564773376000005","-10.24","-1.37","-2.71"
"51.63188224","-13.34","-0.51","-0.82"
"51.782877184","-16.20","-1.02","-7.26"
"51.858374656","-7.61","-3.22","-5.22"
"51.908706304000006","-8.47","-0.90","-4.28"
"51.959037952","-7.65","-2.47","-3.45"
"52.026146816","-7.92","-3.33","-2.63"
"52.118421504000004","-7.88","-2.63","-1.69"
"52.210696192","-10.79","-3.92","-3.49"
"52.277805056000005","-10.00","-3.80","0.31"
"52.361691136000005","-12.28","-8.04","-8.00"
"52.445577216000004","-16.28","-2.71","-3.14"
"52.521074688000006","-5.84","-3.02","-3.61"
"52.588183552000004","-8.00","-1.02","-3.14"
"52.672069632","-9.26","-0.82","-1.77"
"52.764344320000006","-8.87","-0.94","-0.71"
"52.865007616","-15.65","-2.51","-2.31"
"52.932116480000005","-15.14","1.77","-4.00"
"53.016002560000004","-10.79","-3.49","-7.65"
"53.083111424","-11.14","-3.41","-3.53"
"53.175386112000005","-6.83","-1.33","-3.14"
"53.242494976","-7.69","-2.94","-2.86"
"53.33476966400001","-7.26","-2.90","-2.24"
"53.427044352","-11.77","-3.80","-3.06"
"53.569650688","-9.14","-3.57","0.71"
"53.569650688","-14.83","-9.14","-6.04"
"53.712257024","-9.06","-1.57","-5.96"
"53.779365888","-7.85","-3.88","-4.63"
"53.829697536000005","-7.14","-2.04","-3.22"
"53.8968064","-8.04","-0.04","-2.63"
"53.989081088000006","-8.71","-0.82","-1.53"
"54.06457856","-11.10","-3.06","-3.37"
"54.131687424000006","-11.53","-0.59","-4.16"
"54.223962112","-12.79","0.51","-7.37"
"54.316236800000006","-12.20","-5.18","-2.28"
"54.442065920000005","-7.37","-0.78","-3.45"
"54.509174784","-7.26","-2.59","-3.10"
"54.576283648","-7.34","-3.10","-2.08"
"54.643392512000005","-9.45","-3.02","-1.69"
"54.710501376","-11.30","-5.33","-1.14"
"55.171874816000006","-11.49","-9.45","-5.77"
"55.683579904000005","-6.94","-3.26","-6.79"
"55.691968512","-10.98","-3.73","-5.26"
"55.725522944000005","-6.00","-2.35","-3.45"
"55.725522944000005","-7.81","-0.39","-3.18-8.79"
"55.775854592","-8.24","-3.14","-2.20"
"55.834574848","-8.00","-2.98","-2.00"
"55.918460928","-11.06","-3.77","-3.53"
"56.010735616000005","-9.73","-3.37","-0.59"
"56.069455872000006","-14.40","-9.49","-5.26"
